keyResp.keys,keyResp.corr,mouseResp.x,mouseResp.y,mouseResp.leftButton,mouseResp.midButton,mouseResp.rightButton,mouseResp.time,mouseResp.clicked_name,correctMouseResp,trialRespTimes,moveOnKeys.keys,moveOnKeys.rt,PracticeLoop.thisRepN,PracticeLoop.thisTrialN,PracticeLoop.thisN,PracticeLoop.thisIndex,PracticeLoop.ran,onsetTime,thisImage,participant,session,date,expName,psychopyVersion,OS,frameRate,key_resp.keys,mouse.x,mouse.y,mouse.leftButton,mouse.midButton,mouse.rightButton,ExptLoop.thisRepN,ExptLoop.thisTrialN,ExptLoop.thisN,ExptLoop.thisIndex,ExptLoop.ran
,0,-0.2375,-0.2575,1,0,0,2.733,cross_button,1,1.433,space,2.199,0,0,0,3,1,1.3,images/target_cross.jpg,000,001,2023-04-26_22h13.52,choiceRTT,2021.2.3,MacIntel,60.16847172,,,,,,,,,,,
,0,0.055,-0.27875,1,0,0,2.424,square_button,1,1.124,space,3.407,0,1,1,8,1,1.3,images/target_square.jpg,000,001,2023-04-26_22h13.52,choiceRTT,2021.2.3,MacIntel,60.16847172,,,,,,,,,,,
,0,0.01875,-0.26,1,0,0,2.073,square_button,1,0.973,space,2.242,0,2,2,5,1,1.1,images/target_square.jpg,000,001,2023-04-26_22h13.52,choiceRTT,2021.2.3,MacIntel,60.16847172,,,,,,,,,,,
,0,-0.295,-0.27375,1,0,0,3.97,cross_button,0,2.47,space,5.685,0,3,3,4,1,1.5,images/target_plus.jpg,000,001,2023-04-26_22h13.52,choiceRTT,2021.2.3,MacIntel,60.16847172,,,,,,,,,,,
,0,-0.245,-0.1975,1,0,0,2.741,cross_button,1,1.241,space,1.661,0,4,4,6,1,1.5,images/target_cross.jpg,000,001,2023-04-26_22h13.52,choiceRTT,2021.2.3,MacIntel,60.16847172,,,,,,,,,,,
,0,-0.2475,-0.235,1,0,0,1.859,cross_button,1,0.759,space,1.56,0,5,5,0,1,1.1,images/target_cross.jpg,000,001,2023-04-26_22h13.52,choiceRTT,2021.2.3,MacIntel,60.16847172,,,,,,,,,,,
,0,-0.02,-0.265,1,0,0,2.458,square_button,1,0.958,space,3.638,0,6,6,2,1,1.5,images/target_square.jpg,000,001,2023-04-26_22h13.52,choiceRTT,2021.2.3,MacIntel,60.16847172,,,,,,,,,,,
,0,0.2475,-0.22875,1,0,0,1.977,plus_button,1,0.877,space,1.561,0,7,7,7,1,1.1,images/target_plus.jpg,000,001,2023-04-26_22h13.52,choiceRTT,2021.2.3,MacIntel,60.16847172,,,,,,,,,,,
,0,0.24125,-0.27875,1,0,0,1.992,plus_button,1,0.692,space,4.493,0,8,8,1,1,1.3,images/target_plus.jpg,000,001,2023-04-26_22h13.52,choiceRTT,2021.2.3,MacIntel,60.16847172,,,,,,,,,,,
,0,-0.0075,-0.26375,1,0,0,2.315,square_button,1,1.015,,,,,,,,1.3,images/target_square.jpg,000,001,2023-04-26_22h13.52,choiceRTT,2021.2.3,MacIntel,60.16847172,,0.0125,-0.23625,1,0,0,0,0,0,8,1
,0,-0.00125,-0.265,1,0,0,1.827,square_button,1,0.727,,,,,,,,1.1,images/target_square.jpg,000,001,2023-04-26_22h13.52,choiceRTT,2021.2.3,MacIntel,60.16847172,,,,,,,0,1,1,5,1
,0,0.31625,-0.24375,1,0,0,2.908,plus_button,1,1.608,,,,,,,,1.3,images/target_plus.jpg,000,001,2023-04-26_22h13.52,choiceRTT,2021.2.3,MacIntel,60.16847172,,,,,,,0,2,2,1,1
,0,-0.21125,-0.25125,1,0,0,2.441,cross_button,1,1.141,,,,,,,,1.3,images/target_cross.jpg,000,001,2023-04-26_22h13.52,choiceRTT,2021.2.3,MacIntel,60.16847172,,,,,,,0,3,3,3,1
,0,-0.01375,-0.27,1,0,0,2.243,square_button,1,0.743,,,,,,,,1.5,images/target_square.jpg,000,001,2023-04-26_22h13.52,choiceRTT,2021.2.3,MacIntel,60.16847172,,,,,,,0,4,4,2,1
,0,-0.25,-0.26625,1,0,0,2.591,cross_button,1,1.091,,,,,,,,1.5,images/target_cross.jpg,000,001,2023-04-26_22h13.52,choiceRTT,2021.2.3,MacIntel,60.16847172,,,,,,,0,5,5,6,1
,0,-0.2425,-0.2625,1,0,0,1.842,cross_button,1,0.742,,,,,,,,1.1,images/target_cross.jpg,000,001,2023-04-26_22h13.52,choiceRTT,2021.2.3,MacIntel,60.16847172,,,,,,,0,6,6,0,1
,0,0.2825,-0.245,1,0,0,2.124,plus_button,1,1.024,,,,,,,,1.1,images/target_plus.jpg,000,001,2023-04-26_22h13.52,choiceRTT,2021.2.3,MacIntel,60.16847172,,,,,,,0,7,7,7,1
,0,0.21125,-0.24375,1,0,0,2.424,plus_button,1,0.924,,,,,,,,1.5,images/target_plus.jpg,000,001,2023-04-26_22h13.52,choiceRTT,2021.2.3,MacIntel,60.16847172,,,,,,,0,8,8,4,1
,0,0.19875,-0.26375,1,0,0,2.107,plus_button,1,0.807,,,,,,,,1.3,images/target_plus.jpg,000,001,2023-04-26_22h13.52,choiceRTT,2021.2.3,MacIntel,60.16847172,,,,,,,1,0,9,1,1
,0,-0.005,-0.26,1,0,0,1.926,square_button,1,0.826,,,,,,,,1.1,images/target_square.jpg,000,001,2023-04-26_22h13.52,choiceRTT,2021.2.3,MacIntel,60.16847172,,,,,,,1,1,10,5,1
,0,-0.24625,-0.28875,1,0,0,2.242,cross_button,1,1.142,,,,,,,,1.1,images/target_cross.jpg,000,001,2023-04-26_22h13.52,choiceRTT,2021.2.3,MacIntel,60.16847172,,,,,,,1,2,11,0,1
,0,-0.3075,-0.285,1,0,0,2.541,cross_button,1,1.041,,,,,,,,1.5,images/target_cross.jpg,000,001,2023-04-26_22h13.52,choiceRTT,2021.2.3,MacIntel,60.16847172,,,,,,,1,3,12,6,1
,0,0.245,-0.2775,1,0,0,2.392,plus_button,1,0.892,,,,,,,,1.5,images/target_plus.jpg,000,001,2023-04-26_22h13.52,choiceRTT,2021.2.3,MacIntel,60.16847172,,,,,,,1,4,13,4,1
,0,0.16125,-0.2725,1,0,0,1.758,plus_button,1,0.658,,,,,,,,1.1,images/target_plus.jpg,000,001,2023-04-26_22h13.52,choiceRTT,2021.2.3,MacIntel,60.16847172,,,,,,,1,5,14,7,1
,0,-0.00125,-0.24125,1,0,0,2.192,square_button,1,0.692,,,,,,,,1.5,images/target_square.jpg,000,001,2023-04-26_22h13.52,choiceRTT,2021.2.3,MacIntel,60.16847172,,,,,,,1,6,15,2,1
,0,-0.00125,-0.25,1,0,0,1.86,square_button,1,0.56,,,,,,,,1.3,images/target_square.jpg,000,001,2023-04-26_22h13.52,choiceRTT,2021.2.3,MacIntel,60.16847172,,,,,,,1,7,16,8,1
,0,-0.24875,-0.24875,1,0,0,2.522,cross_button,1,1.222,,,,,,,,1.3,images/target_cross.jpg,000,001,2023-04-26_22h13.52,choiceRTT,2021.2.3,MacIntel,60.16847172,,,,,,,1,8,17,3,1
