keyResp.keys,keyResp.corr,mouseResp.x,mouseResp.y,mouseResp.leftButton,mouseResp.midButton,mouseResp.rightButton,mouseResp.time,mouseResp.clicked_name,correctMouseResp,trialRespTimes,moveOnKeys.keys,PracticeLoop.thisRepN,PracticeLoop.thisTrialN,PracticeLoop.thisN,PracticeLoop.thisIndex,PracticeLoop.ran,onsetTime,thisImage,participant,session,date,expName,psychopyVersion,OS,frameRate,moveOnKeys.rt,key_resp.keys,mouse.x,mouse.y,mouse.leftButton,mouse.midButton,mouse.rightButton,ExptLoop.thisRepN,ExptLoop.thisTrialN,ExptLoop.thisN,ExptLoop.thisIndex,ExptLoop.ran
,0,-0.020100228,-0.245398941,1,0,0,3.9536,square_button,0,2.4536,,0,0,0,4,1,1.5,images/target_plus.jpg,1,001,2022-08-20_01h34.24.240,choiceRTT,2021.2.3,MacIntel,60.0024001,,,,,,,,,,,,
,0,0.361426602,-0.044363839,1,0,0,2.9381,square_button,0,1.6381,,0,1,1,1,1,1.3,images/target_plus.jpg,1,001,2022-08-20_01h34.24.240,choiceRTT,2021.2.3,MacIntel,60.0024001,,,,,,,,,,,,
,0,0.006975446,-0.257259935,1,0,0,3.8339,square_button,1,2.7339,,0,2,2,5,1,1.1,images/target_square.jpg,1,001,2022-08-20_01h34.24.240,choiceRTT,2021.2.3,MacIntel,60.0024001,,,,,,,,,,,,
,0,0.302438944,-0.238757222,1,0,0,2.7051,plus_button,1,1.6051,,0,3,3,7,1,1.1,images/target_plus.jpg,1,001,2022-08-20_01h34.24.240,choiceRTT,2021.2.3,MacIntel,60.0024001,,,,,,,,,,,,
,0,-0.212124694,-0.257445947,1,0,0,3.9399,cross_button,1,2.6399,,0,4,4,3,1,1.3,images/target_cross.jpg,1,001,2022-08-20_01h34.24.240,choiceRTT,2021.2.3,MacIntel,60.0024001,,,,,,,,,,,,
,0,0.001077775,-0.26095829,1,0,0,2.9065,square_button,1,1.4065,space,0,5,5,2,1,1.5,images/target_square.jpg,1,001,2022-08-20_01h34.24.240,choiceRTT,2021.2.3,MacIntel,60.0024001,2.1015,,,,,,,,,,,
,0,-0.223318234,-0.243790485,1,0,0,2.2876,cross_button,1,1.1876,space,0,6,6,0,1,1.1,images/target_cross.jpg,1,001,2022-08-20_01h34.24.240,choiceRTT,2021.2.3,MacIntel,60.0024001,1.3375,,,,,,,,,,,
,0,0.055956758,-0.292651436,1,0,0,2.5544,square_button,1,1.2544,space,0,7,7,8,1,1.3,images/target_square.jpg,1,001,2022-08-20_01h34.24.240,choiceRTT,2021.2.3,MacIntel,60.0024001,0.4938,,,,,,,,,,,
,0,-0.212726497,-0.250957414,1,0,0,2.587,cross_button,1,1.087,space,0,8,8,6,1,1.5,images/target_cross.jpg,1,001,2022-08-20_01h34.24.240,choiceRTT,2021.2.3,MacIntel,60.0024001,0.5953,,,,,,,,,,,
,0,0.243987439,-0.269334296,1,0,0,2.7298,plus_button,0,1.4298,,,,,,,1.3,images/target_square.jpg,1,001,2022-08-20_01h34.24.240,choiceRTT,2021.2.3,MacIntel,60.0024001,,,-0.023574273,-0.253862482,1,0,0,0,0,0,8,1
,0,-0.219581583,-0.258758972,1,0,0,3.8163,cross_button,1,2.5163,,,,,,,1.3,images/target_cross.jpg,1,001,2022-08-20_01h34.24.240,choiceRTT,2021.2.3,MacIntel,60.0024001,,,,,,,,0,1,1,3,1
,0,-0.207775298,-0.261352197,1,0,0,2.222,cross_button,1,1.122,,,,,,,1.1,images/target_cross.jpg,1,001,2022-08-20_01h34.24.240,choiceRTT,2021.2.3,MacIntel,60.0024001,,,,,,,,0,2,2,0,1
,0,-0.201625963,-0.281994048,1,0,0,2.298,cross_button,1,0.798,,,,,,,1.5,images/target_cross.jpg,1,001,2022-08-20_01h34.24.240,choiceRTT,2021.2.3,MacIntel,60.0024001,,,,,,,,0,3,3,6,1
,0,0.216096595,-0.263814119,1,0,0,2.7831,plus_button,1,1.6831,,,,,,,1.1,images/target_plus.jpg,1,001,2022-08-20_01h34.24.240,choiceRTT,2021.2.3,MacIntel,60.0024001,,,,,,,,0,4,4,7,1
,0,-0.01503961,-0.262588629,1,0,0,2.2487,square_button,1,1.1487,,,,,,,1.1,images/target_square.jpg,1,001,2022-08-20_01h34.24.240,choiceRTT,2021.2.3,MacIntel,60.0024001,,,,,,,,0,5,5,5,1
,0,0.052198223,-0.275007659,1,0,0,2.454,square_button,1,0.954,,,,,,,1.5,images/target_square.jpg,1,001,2022-08-20_01h34.24.240,choiceRTT,2021.2.3,MacIntel,60.0024001,,,,,,,,0,6,6,2,1
,0,-0.216512386,-0.250568978,1,0,0,2.9151,cross_button,0,1.4151,,,,,,,1.5,images/target_plus.jpg,1,001,2022-08-20_01h34.24.240,choiceRTT,2021.2.3,MacIntel,60.0024001,,,,,,,,0,7,7,4,1
,0,0.27751882,-0.22539719,1,0,0,3.3677,plus_button,1,2.0677,,,,,,,1.3,images/target_plus.jpg,1,001,2022-08-20_01h34.24.240,choiceRTT,2021.2.3,MacIntel,60.0024001,,,,,,,,0,8,8,1,1
,0,-0.162754946,-0.242778361,1,0,0,2.2046,cross_button,1,0.9046,,,,,,,1.3,images/target_cross.jpg,1,001,2022-08-20_01h34.24.240,choiceRTT,2021.2.3,MacIntel,60.0024001,,,,,,,,1,0,9,3,1
,0,-0.024104954,-0.255826549,1,0,0,2.3323,square_button,1,0.8323,,,,,,,1.5,images/target_square.jpg,1,001,2022-08-20_01h34.24.240,choiceRTT,2021.2.3,MacIntel,60.0024001,,,,,,,,1,1,10,2,1
,0,-0.233981092,-0.282995229,1,0,0,2.7147,cross_button,0,1.2147,,,,,,,1.5,images/target_plus.jpg,1,001,2022-08-20_01h34.24.240,choiceRTT,2021.2.3,MacIntel,60.0024001,,,,,,,,1,2,11,4,1
,0,-0.023371849,-0.251482624,1,0,0,2.8213,square_button,1,1.5213,,,,,,,1.3,images/target_square.jpg,1,001,2022-08-20_01h34.24.240,choiceRTT,2021.2.3,MacIntel,60.0024001,,,,,,,,1,3,12,8,1
,0,-0.213339242,-0.265789128,1,0,0,3.1324,cross_button,1,2.0324,,,,,,,1.1,images/target_cross.jpg,1,001,2022-08-20_01h34.24.240,choiceRTT,2021.2.3,MacIntel,60.0024001,,,,,,,,1,4,13,0,1
,0,-0.047323617,-0.271205357,1,0,0,1.9723,square_button,1,0.8723,,,,,,,1.1,images/target_square.jpg,1,001,2022-08-20_01h34.24.240,choiceRTT,2021.2.3,MacIntel,60.0024001,,,,,,,,1,5,14,5,1
,0,0.19286152,-0.251854648,1,0,0,2.7335,plus_button,1,1.6335,,,,,,,1.1,images/target_plus.jpg,1,001,2022-08-20_01h34.24.240,choiceRTT,2021.2.3,MacIntel,60.0024001,,,,,,,,1,6,15,7,1
,0,-0.209000788,-0.270423013,1,0,0,2.815,cross_button,1,1.315,,,,,,,1.5,images/target_cross.jpg,1,001,2022-08-20_01h34.24.240,choiceRTT,2021.2.3,MacIntel,60.0024001,,,,,,,,1,7,16,6,1
,0,0.228477328,-0.251389618,1,0,0,2.4163,plus_button,1,1.1163,,,,,,,1.3,images/target_plus.jpg,1,001,2022-08-20_01h34.24.240,choiceRTT,2021.2.3,MacIntel,60.0024001,,,,,,,,1,8,17,1,1
