response.keys,response.corr,mouseResp.x,mouseResp.y,mouseResp.leftButton,mouseResp.midButton,mouseResp.rightButton,mouseResp.clicked_name,practiceTrials.thisRepN,practiceTrials.thisTrialN,practiceTrials.thisN,practiceTrials.thisIndex,practiceTrials.ran,practiceTrials.order,isi,xPos,corrAns,participant,session,date,expName,psychopyVersion,frameRate,mainTrials.thisRepN,mainTrials.thisTrialN,mainTrials.thisN,mainTrials.thisIndex,mainTrials.ran,mainTrials.order
,0,0.100837054,0.002511161,1,0,0,targImage,1,0,8,2,1,7,1,0.125,b,1,001,2020-05-05_08h45.24.329,choiceRTT,3.1.3,60,,,,,,
,0,-0.344063895,0.013846261,1,0,0,targImage,1,0,8,4,1,7,1,-0.375,c,1,001,2020-05-05_08h45.24.329,choiceRTT,3.1.3,60,,,,,,
,0,-0.153135463,0.000439453,1,0,0,targImage,1,0,8,1,1,7,1,-0.125,v,1,001,2020-05-05_08h45.24.329,choiceRTT,3.1.3,60,,,,,,
,0,-0.382948521,-0.015199498,1,0,0,targImage,1,0,8,0,1,7,1,-0.375,c,1,001,2020-05-05_08h45.24.329,choiceRTT,3.1.3,60,,,,,,
,0,-0.11965332,-0.016144671,1,0,0,targImage,1,0,8,5,1,7,1,-0.125,v,1,001,2020-05-05_08h45.24.329,choiceRTT,3.1.3,60,,,,,,
,0,0.379823521,0.001489258,1,0,0,targImage,1,0,8,3,1,7,1,0.375,n,1,001,2020-05-05_08h45.24.329,choiceRTT,3.1.3,60,,,,,,
,0,0.113661412,0.008367048,1,0,0,targImage,1,0,8,6,1,7,1,0.125,b,1,001,2020-05-05_08h45.24.329,choiceRTT,3.1.3,60,,,,,,
,0,0.378404018,0.015046038,1,0,0,targImage,1,0,8,7,1,7,1,0.375,n,1,001,2020-05-05_08h45.24.329,choiceRTT,3.1.3,60,,,,,,
,0,-0.340293666,0.002678571,1,0,0,targImage,,,,,,,1,-0.375,c,1,001,2020-05-05_08h45.24.329,choiceRTT,3.1.3,60,1,0,40,0,1,39
,0,0.13265904,0.004865374,1,0,0,targImage,,,,,,,1.2222,0.125,b,1,001,2020-05-05_08h45.24.329,choiceRTT,3.1.3,60,1,0,40,6,1,39
,0,-0.100558036,0.000994001,1,0,0,targImage,,,,,,,2.5554,-0.125,v,1,001,2020-05-05_08h45.24.329,choiceRTT,3.1.3,60,1,0,40,29,1,39
,0,0.42847726,-0.004415458,1,0,0,targImage,,,,,,,1.6666,0.375,n,1,001,2020-05-05_08h45.24.329,choiceRTT,3.1.3,60,1,0,40,15,1,39
,0,-0.140415737,-0.002322824,1,0,0,targImage,,,,,,,2.7776,-0.125,v,1,001,2020-05-05_08h45.24.329,choiceRTT,3.1.3,60,1,0,40,33,1,39
,0,0.103923689,-0.004554967,1,0,0,targImage,,,,,,,2.7776,0.125,b,1,001,2020-05-05_08h45.24.329,choiceRTT,3.1.3,60,1,0,40,34,1,39
,0,-0.083956473,-0.017630441,1,0,0,targImage,,,,,,,2.111,-0.125,v,1,001,2020-05-05_08h45.24.329,choiceRTT,3.1.3,60,1,0,40,21,1,39
,0,0.362290737,0.014951869,1,0,0,targImage,,,,,,,2.9998,0.375,n,1,001,2020-05-05_08h45.24.329,choiceRTT,3.1.3,60,1,0,40,39,1,39
,0,0.376702009,-0.001328823,1,0,0,targImage,,,,,,,2.3332,0.375,n,1,001,2020-05-05_08h45.24.329,choiceRTT,3.1.3,60,1,0,40,27,1,39
,0,0.376702009,-0.001328823,1,0,0,targImage,,,,,,,1.8888,0.375,n,1,001,2020-05-05_08h45.24.329,choiceRTT,3.1.3,60,1,0,40,19,1,39
,0,-0.383150809,0.010710798,1,0,0,targImage,,,,,,,2.5554,-0.375,c,1,001,2020-05-05_08h45.24.329,choiceRTT,3.1.3,60,1,0,40,28,1,39
,0,0.380765206,-0.004708426,1,0,0,targImage,,,,,,,2.111,0.375,n,1,001,2020-05-05_08h45.24.329,choiceRTT,3.1.3,60,1,0,40,23,1,39
,0,0.111499023,-0.004066685,1,0,0,targImage,,,,,,,2.111,0.125,b,1,001,2020-05-05_08h45.24.329,choiceRTT,3.1.3,60,1,0,40,22,1,39
,0,-0.383314732,0.009493583,1,0,0,targImage,,,,,,,1.4444,-0.375,c,1,001,2020-05-05_08h45.24.329,choiceRTT,3.1.3,60,1,0,40,8,1,39
,0,-0.368094308,-0.013270787,1,0,0,targImage,,,,,,,2.111,-0.375,c,1,001,2020-05-05_08h45.24.329,choiceRTT,3.1.3,60,1,0,40,20,1,39
,0,0.119893973,0.01464495,1,0,0,targImage,,,,,,,2.3332,0.125,b,1,001,2020-05-05_08h45.24.329,choiceRTT,3.1.3,60,1,0,40,26,1,39
,0,0.343840681,-0.007519531,1,0,0,targImage,,,,,,,1.2222,0.375,n,1,001,2020-05-05_08h45.24.329,choiceRTT,3.1.3,60,1,0,40,7,1,39
,0,-0.1205113,0.017735073,1,0,0,targImage,,,,,,,2.9998,-0.125,v,1,001,2020-05-05_08h45.24.329,choiceRTT,3.1.3,60,1,0,40,37,1,39
,0,0.145103237,-0.00309361,1,0,0,targImage,,,,,,,2.9998,0.125,b,1,001,2020-05-05_08h45.24.329,choiceRTT,3.1.3,60,1,0,40,38,1,39
,0,0.42028111,-0.020507813,1,0,0,targImage,,,,,,,2.5554,0.375,n,1,001,2020-05-05_08h45.24.329,choiceRTT,3.1.3,60,1,0,40,31,1,39
,0,0.141458566,-0.018962751,1,0,0,targImage,,,,,,,1.6666,0.125,b,1,001,2020-05-05_08h45.24.329,choiceRTT,3.1.3,60,1,0,40,14,1,39
,0,-0.11910226,-0.038375419,1,0,0,targImage,,,,,,,1.4444,-0.125,v,1,001,2020-05-05_08h45.24.329,choiceRTT,3.1.3,60,1,0,40,9,1,39
,0,0.135801479,0.009807478,1,0,0,targImage,,,,,,,1.8888,0.125,b,1,001,2020-05-05_08h45.24.329,choiceRTT,3.1.3,60,1,0,40,18,1,39
,0,0.377580915,-0.021529715,1,0,0,targImage,,,,,,,1.4444,0.375,n,1,001,2020-05-05_08h45.24.329,choiceRTT,3.1.3,60,1,0,40,11,1,39
,0,0.137363979,-0.01101423,1,0,0,targImage,,,,,,,2.5554,0.125,b,1,001,2020-05-05_08h45.24.329,choiceRTT,3.1.3,60,1,0,40,30,1,39
,0,-0.125708008,0.007924107,1,0,0,targImage,,,,,,,2.3332,-0.125,v,1,001,2020-05-05_08h45.24.329,choiceRTT,3.1.3,60,1,0,40,25,1,39
,0,-0.340715681,-0.013113839,1,0,0,targImage,,,,,,,2.9998,-0.375,c,1,001,2020-05-05_08h45.24.329,choiceRTT,3.1.3,60,1,0,40,36,1,39
,0,0.334158761,-0.034542411,1,0,0,targImage,,,,,,,2.7776,0.375,n,1,001,2020-05-05_08h45.24.329,choiceRTT,3.1.3,60,1,0,40,35,1,39
,0,0.151279994,-0.009151786,1,0,0,targImage,,,,,,,1.4444,0.125,b,1,001,2020-05-05_08h45.24.329,choiceRTT,3.1.3,60,1,0,40,10,1,39
,0,0.151279994,-0.009151786,1,0,0,targImage,,,,,,,1,0.125,b,1,001,2020-05-05_08h45.24.329,choiceRTT,3.1.3,60,1,0,40,2,1,39
,0,-0.143369838,0.002099609,1,0,0,targImage,,,,,,,1.8888,-0.125,v,1,001,2020-05-05_08h45.24.329,choiceRTT,3.1.3,60,1,0,40,17,1,39
,0,-0.351893834,-0.001841518,1,0,0,targImage,,,,,,,1.6666,-0.375,c,1,001,2020-05-05_08h45.24.329,choiceRTT,3.1.3,60,1,0,40,12,1,39
,0,-0.327825056,-0.012915039,1,0,0,targImage,,,,,,,2.7776,-0.375,c,1,001,2020-05-05_08h45.24.329,choiceRTT,3.1.3,60,1,0,40,32,1,39
,0,-0.327825056,-0.012915039,1,0,0,targImage,,,,,,,1.8888,-0.375,c,1,001,2020-05-05_08h45.24.329,choiceRTT,3.1.3,60,1,0,40,16,1,39
,0,-0.119185965,-0.0107387,1,0,0,targImage,,,,,,,1,-0.125,v,1,001,2020-05-05_08h45.24.329,choiceRTT,3.1.3,60,1,0,40,1,1,39
,0,-0.365440151,-0.024661691,1,0,0,targImage,,,,,,,2.3332,-0.375,c,1,001,2020-05-05_08h45.24.329,choiceRTT,3.1.3,60,1,0,40,24,1,39
,0,-0.365440151,-0.024661691,1,0,0,targImage,,,,,,,1.2222,-0.375,c,1,001,2020-05-05_08h45.24.329,choiceRTT,3.1.3,60,1,0,40,4,1,39
,0,0.378641183,-0.006696429,1,0,0,targImage,,,,,,,1,0.375,n,1,001,2020-05-05_08h45.24.329,choiceRTT,3.1.3,60,1,0,40,3,1,39
,0,-0.125338309,-0.009688895,1,0,0,targImage,,,,,,,1.2222,-0.125,v,1,001,2020-05-05_08h45.24.329,choiceRTT,3.1.3,60,1,0,40,5,1,39
,0,-0.125338309,-0.009688895,1,0,0,targImage,,,,,,,1.6666,-0.125,v,1,001,2020-05-05_08h45.24.329,choiceRTT,3.1.3,60,1,0,40,13,1,39
