response.keys,response.corr,mouseResp.x,mouseResp.y,mouseResp.leftButton,mouseResp.midButton,mouseResp.rightButton,mouseResp.clicked_name,practiceTrials.thisRepN,practiceTrials.thisTrialN,practiceTrials.thisN,practiceTrials.thisIndex,practiceTrials.ran,practiceTrials.order,isi,xPos,corrAns,participant,session,date,expName,psychopyVersion,frameRate,mainTrials.thisRepN,mainTrials.thisTrialN,mainTrials.thisN,mainTrials.thisIndex,mainTrials.ran,mainTrials.order
,0,0.162037053,0.016666659,1,0,0,targImage,1,0,8,2,1,7,1,0.125,b,1,001,2020-04-24_15h09.14.188,choiceRTT,3.1.3,60,,,,,,
,0,0.378703836,-0.019444452,1,0,0,targImage,1,0,8,7,1,7,1,0.375,n,1,001,2020-04-24_15h09.14.188,choiceRTT,3.1.3,60,,,,,,
,0,-0.092592581,0.016666659,1,0,0,targImage,1,0,8,1,1,7,1,-0.125,v,1,001,2020-04-24_15h09.14.188,choiceRTT,3.1.3,60,,,,,,
,0,-0.092592581,0.016666659,1,0,0,targImage,1,0,8,5,1,7,1,-0.125,v,1,001,2020-04-24_15h09.14.188,choiceRTT,3.1.3,60,,,,,,
,0,-0.354629622,0.00277777,1,0,0,targImage,1,0,8,0,1,7,1,-0.375,c,1,001,2020-04-24_15h09.14.188,choiceRTT,3.1.3,60,,,,,,
,0,-0.314814806,-0.000925933,1,0,0,targImage,1,0,8,4,1,7,1,-0.375,c,1,001,2020-04-24_15h09.14.188,choiceRTT,3.1.3,60,,,,,,
,0,0.392592725,0.006481474,1,0,0,targImage,1,0,8,3,1,7,1,0.375,n,1,001,2020-04-24_15h09.14.188,choiceRTT,3.1.3,60,,,,,,
,0,0.151851867,0.001851844,1,0,0,targImage,1,0,8,6,1,7,1,0.125,b,1,001,2020-04-24_15h09.14.188,choiceRTT,3.1.3,60,,,,,,
,0,0.425925946,-0.002777785,1,0,0,targImage,,,,,,,1,0.375,n,1,001,2020-04-24_15h09.14.188,choiceRTT,3.1.3,60,1,0,40,3,1,39
,0,0.285185203,0.000925918,1,0,0,targImage,,,,,,,2.111,0.375,n,1,001,2020-04-24_15h09.14.188,choiceRTT,3.1.3,60,1,0,40,23,1,39
,0,-0.379629622,0.00277777,1,0,0,targImage,,,,,,,2.7776,-0.375,c,1,001,2020-04-24_15h09.14.188,choiceRTT,3.1.3,60,1,0,40,32,1,39
,0,-0.198148138,0.023148141,1,0,0,targImage,,,,,,,2.7776,-0.125,v,1,001,2020-04-24_15h09.14.188,choiceRTT,3.1.3,60,1,0,40,33,1,39
,0,-0.336111103,0.01203703,1,0,0,targImage,,,,,,,1.8888,-0.375,c,1,001,2020-04-24_15h09.14.188,choiceRTT,3.1.3,60,1,0,40,16,1,39
,0,-0.087037025,0.006481474,1,0,0,targImage,,,,,,,1.8888,-0.125,v,1,001,2020-04-24_15h09.14.188,choiceRTT,3.1.3,60,1,0,40,17,1,39
,0,0.069444459,-0.003703711,1,0,0,targImage,,,,,,,2.3332,0.125,b,1,001,2020-04-24_15h09.14.188,choiceRTT,3.1.3,60,1,0,40,26,1,39
,0,0.325925944,0.00277777,1,0,0,targImage,,,,,,,2.5554,0.375,n,1,001,2020-04-24_15h09.14.188,choiceRTT,3.1.3,60,1,0,40,31,1,39
,0,-0.096296284,0.006481474,1,0,0,targImage,,,,,,,1.2222,-0.125,v,1,001,2020-04-24_15h09.14.188,choiceRTT,3.1.3,60,1,0,40,5,1,39
,0,-0.34351851,0.024074067,1,0,0,targImage,,,,,,,1,-0.375,c,1,001,2020-04-24_15h09.14.188,choiceRTT,3.1.3,60,1,0,40,0,1,39
,0,0.347222241,-0.002777785,1,0,0,targImage,,,,,,,1.6666,0.375,n,1,001,2020-04-24_15h09.14.188,choiceRTT,3.1.3,60,1,0,40,15,1,39
,0,-0.070370358,0.020370363,1,0,0,targImage,,,,,,,2.9998,-0.125,v,1,001,2020-04-24_15h09.14.188,choiceRTT,3.1.3,60,1,0,40,37,1,39
,0,0.305555573,0.005555548,1,0,0,targImage,,,,,,,1.8888,0.375,n,1,001,2020-04-24_15h09.14.188,choiceRTT,3.1.3,60,1,0,40,19,1,39
,0,-0.108333322,0.011111104,1,0,0,targImage,,,,,,,1.6666,-0.125,v,1,001,2020-04-24_15h09.14.188,choiceRTT,3.1.3,60,1,0,40,13,1,39
,0,0.120370385,0.009259252,1,0,0,targImage,,,,,,,1.2222,0.125,b,1,001,2020-04-24_15h09.14.188,choiceRTT,3.1.3,60,1,0,40,6,1,39
,0,0.358333352,0.010185178,1,0,0,targImage,,,,,,,1.4444,0.375,n,1,001,2020-04-24_15h09.14.188,choiceRTT,3.1.3,60,1,0,40,11,1,39
,0,-0.308333325,0.022222215,1,0,0,targImage,,,,,,,2.5554,-0.375,c,1,001,2020-04-24_15h09.14.188,choiceRTT,3.1.3,60,1,0,40,28,1,39
,0,0.081481496,0.009259252,1,0,0,targImage,,,,,,,2.111,0.125,b,1,001,2020-04-24_15h09.14.188,choiceRTT,3.1.3,60,1,0,40,22,1,39
,0,-0.342592584,0.008333326,1,0,0,targImage,,,,,,,1.4444,-0.375,c,1,001,2020-04-24_15h09.14.188,choiceRTT,3.1.3,60,1,0,40,8,1,39
,0,-0.299999991,0.013888882,1,0,0,targImage,,,,,,,2.9998,-0.375,c,1,001,2020-04-24_15h09.14.188,choiceRTT,3.1.3,60,1,0,40,36,1,39
,0,-0.150925858,0.001851844,1,0,0,targImage,,,,,,,1.4444,-0.125,v,1,001,2020-04-24_15h09.14.188,choiceRTT,3.1.3,60,1,0,40,9,1,39
,0,-0.128703692,0.0074074,1,0,0,targImage,,,,,,,2.5554,-0.125,v,1,001,2020-04-24_15h09.14.188,choiceRTT,3.1.3,60,1,0,40,29,1,39
,0,0.02500007,0.009259252,1,0,0,targImage,,,,,,,2.9998,0.125,b,1,001,2020-04-24_15h09.14.188,choiceRTT,3.1.3,60,1,0,40,38,1,39
,0,-0.349999992,0.029629623,1,0,0,targImage,,,,,,,1.2222,-0.375,c,1,001,2020-04-24_15h09.14.188,choiceRTT,3.1.3,60,1,0,40,4,1,39
,0,0.385185204,-0.003703711,1,0,0,targImage,,,,,,,2.9998,0.375,n,1,001,2020-04-24_15h09.14.188,choiceRTT,3.1.3,60,1,0,40,39,1,39
,0,0.118518534,0.004629622,1,0,0,targImage,,,,,,,2.7776,0.125,b,1,001,2020-04-24_15h09.14.188,choiceRTT,3.1.3,60,1,0,40,34,1,39
,0,-0.168518508,0.016666659,1,0,0,targImage,,,,,,,2.3332,-0.125,v,1,001,2020-04-24_15h09.14.188,choiceRTT,3.1.3,60,1,0,40,25,1,39
,0,0.10555557,0.013888882,1,0,0,targImage,,,,,,,1,0.125,b,1,001,2020-04-24_15h09.14.188,choiceRTT,3.1.3,60,1,0,40,2,1,39
,0,0.321296314,0.01203703,1,0,0,targImage,,,,,,,1.2222,0.375,n,1,001,2020-04-24_15h09.14.188,choiceRTT,3.1.3,60,1,0,40,7,1,39
,0,0.064814829,0.016666659,1,0,0,targImage,,,,,,,2.5554,0.125,b,1,001,2020-04-24_15h09.14.188,choiceRTT,3.1.3,60,1,0,40,30,1,39
,0,0.337962981,0.005555548,1,0,0,targImage,,,,,,,2.3332,0.375,n,1,001,2020-04-24_15h09.14.188,choiceRTT,3.1.3,60,1,0,40,27,1,39
,0,-0.112037025,0.013888882,1,0,0,targImage,,,,,,,1,-0.125,v,1,001,2020-04-24_15h09.14.188,choiceRTT,3.1.3,60,1,0,40,1,1,39
,0,0.108333348,0.003703696,1,0,0,targImage,,,,,,,1.6666,0.125,b,1,001,2020-04-24_15h09.14.188,choiceRTT,3.1.3,60,1,0,40,14,1,39
,0,0.036111125,0.000925918,1,0,0,targImage,,,,,,,1.8888,0.125,b,1,001,2020-04-24_15h09.14.188,choiceRTT,3.1.3,60,1,0,40,18,1,39
,0,-0.353703696,0.018518511,1,0,0,targImage,,,,,,,2.111,-0.375,c,1,001,2020-04-24_15h09.14.188,choiceRTT,3.1.3,60,1,0,40,20,1,39
,0,0.038888959,0.017592585,1,0,0,targImage,,,,,,,1.4444,0.125,b,1,001,2020-04-24_15h09.14.188,choiceRTT,3.1.3,60,1,0,40,10,1,39
,0,0.333333352,0.012962956,1,0,0,targImage,,,,,,,2.7776,0.375,n,1,001,2020-04-24_15h09.14.188,choiceRTT,3.1.3,60,1,0,40,35,1,39
,0,-0.117592581,0.013888882,1,0,0,targImage,,,,,,,2.111,-0.125,v,1,001,2020-04-24_15h09.14.188,choiceRTT,3.1.3,60,1,0,40,21,1,39
,0,-0.287962954,0.017592585,1,0,0,targImage,,,,,,,2.3332,-0.375,c,1,001,2020-04-24_15h09.14.188,choiceRTT,3.1.3,60,1,0,40,24,1,39
,0,-0.360185177,0.056481475,1,0,0,targImage,,,,,,,1.6666,-0.375,c,1,001,2020-04-24_15h09.14.188,choiceRTT,3.1.3,60,1,0,40,12,1,39
