keyResp.keys,keyResp.corr,mouseResp.x,mouseResp.y,mouseResp.leftButton,mouseResp.midButton,mouseResp.rightButton,mouseResp.time,mouseResp.clicked_name,correctMouseResp,trialRespTimes,moveOnKeys.keys,PracticeLoop.thisRepN,PracticeLoop.thisTrialN,PracticeLoop.thisN,PracticeLoop.thisIndex,PracticeLoop.ran,onsetTime,thisImage,participant,session,date,expName,psychopyVersion,OS,frameRate,moveOnKeys.rt,keyResp.rt,key_resp.keys,mouse.x,mouse.y,mouse.leftButton,mouse.midButton,mouse.rightButton,ExptLoop.thisRepN,ExptLoop.thisTrialN,ExptLoop.thisN,ExptLoop.thisIndex,ExptLoop.ran
,0,0.012962963,-0.255555556,1,0,0,4.8012,square_button,1,3.5012,,0,0,0,8,1,1.3,images/target_square.jpg,1,001,2023-06-12_14h05.29.139,choiceRTT,2021.2.3,Win32,60.13590715,,,,,,,,,,,,,
,0,-0.238888889,-0.262962963,1,0,0,2.9631,cross_button,0,1.8631,,0,1,1,5,1,1.1,images/target_square.jpg,1,001,2023-06-12_14h05.29.139,choiceRTT,2021.2.3,Win32,60.13590715,,,,,,,,,,,,,
,0,-0.223148148,-0.264814815,1,0,0,1.1656,cross_button,1,-0.1344,,0,2,2,3,1,1.3,images/target_cross.jpg,1,001,2023-06-12_14h05.29.139,choiceRTT,2021.2.3,Win32,60.13590715,,,,,,,,,,,,,
,0,0.261111111,-0.251851852,1,0,0,2.8469,plus_button,0,1.3469,space,0,3,3,6,1,1.5,images/target_cross.jpg,1,001,2023-06-12_14h05.29.139,choiceRTT,2021.2.3,Win32,60.13590715,1.822,,,,,,,,,,,,
,0,0.035185185,-0.240740741,1,0,0,1.8475,square_button,0,0.3475,,0,4,4,4,1,1.5,images/target_plus.jpg,1,001,2023-06-12_14h05.29.139,choiceRTT,2021.2.3,Win32,60.13590715,,,,,,,,,,,,,
,0,-0.010185185,-0.259259259,1,0,0,1.427,square_button,0,0.327,,0,5,5,0,1,1.1,images/target_cross.jpg,1,001,2023-06-12_14h05.29.139,choiceRTT,2021.2.3,Win32,60.13590715,,,,,,,,,,,,,
,0,-0.217592593,-0.24537037,1,0,0,1.0773,cross_button,0,-0.0227,,0,6,6,7,1,1.1,images/target_plus.jpg,1,001,2023-06-12_14h05.29.139,choiceRTT,2021.2.3,Win32,60.13590715,,,,,,,,,,,,,
,0,0.042592593,-0.238888889,1,0,0,0.8605,square_button,1,-0.6395,space,0,7,7,2,1,1.5,images/target_square.jpg,1,001,2023-06-12_14h05.29.139,choiceRTT,2021.2.3,Win32,60.13590715,2.0778,,,,,,,,,,,,
c,0,,,,,,,,,0.2453,space,0,8,8,1,1,1.3,images/target_plus.jpg,1,001,2023-06-12_14h05.29.139,choiceRTT,2021.2.3,Win32,60.13590715,2.4979,1.5453,,,,,,,,,,,
v,0,,,,,,,,,0.6707,,,,,,,1.1,images/target_plus.jpg,1,001,2023-06-12_14h05.29.139,choiceRTT,2021.2.3,Win32,60.13590715,,1.7707,,0.024074074,-0.247222222,1,0,0,0,0,0,7,1
v,0,,,,,,,,,0.4683,,,,,,,1.3,images/target_cross.jpg,1,001,2023-06-12_14h05.29.139,choiceRTT,2021.2.3,Win32,60.13590715,,1.7683,,,,,,,0,1,1,3,1
v,0,,,,,,,,,0.3774,,,,,,,1.1,images/target_cross.jpg,1,001,2023-06-12_14h05.29.139,choiceRTT,2021.2.3,Win32,60.13590715,,1.4774,,,,,,,0,2,2,0,1
b,0,,,,,,,,,-0.2728,,,,,,,1.5,images/target_cross.jpg,1,001,2023-06-12_14h05.29.139,choiceRTT,2021.2.3,Win32,60.13590715,,1.2272,,,,,,,0,3,3,6,1
c,0,,,,,,,,,0.2708,,,,,,,1.1,images/target_square.jpg,1,001,2023-06-12_14h05.29.139,choiceRTT,2021.2.3,Win32,60.13590715,,1.3708,,,,,,,0,4,4,5,1
c,0,,,,,,,,,1.4942,,,,,,,1.5,images/target_square.jpg,1,001,2023-06-12_14h05.29.139,choiceRTT,2021.2.3,Win32,60.13590715,,2.9942,,,,,,,0,5,5,2,1
v,0,,,,,,,,,0.0956,,,,,,,1.5,images/target_plus.jpg,1,001,2023-06-12_14h05.29.139,choiceRTT,2021.2.3,Win32,60.13590715,,1.5956,,,,,,,0,6,6,4,1
b,1,,,,,,,,,0.0179,,,,,,,1.3,images/target_plus.jpg,1,001,2023-06-12_14h05.29.139,choiceRTT,2021.2.3,Win32,60.13590715,,1.3179,,,,,,,0,7,7,1,1
c,0,,,,,,,,,-0.195,,,,,,,1.3,images/target_square.jpg,1,001,2023-06-12_14h05.29.139,choiceRTT,2021.2.3,Win32,60.13590715,,1.105,,,,,,,0,8,8,8,1
v,1,,,,,,,,,-0.7465,,,,,,,1.5,images/target_square.jpg,1,001,2023-06-12_14h05.29.139,choiceRTT,2021.2.3,Win32,60.13590715,,0.7535,,,,,,,1,0,9,2,1
v,1,,,,,,,,,-0.2276,,,,,,,1.1,images/target_square.jpg,1,001,2023-06-12_14h05.29.139,choiceRTT,2021.2.3,Win32,60.13590715,,0.8724,,,,,,,1,1,10,5,1
b,0,,,,,,,,,-1.2778,,,,,,,1.3,images/target_cross.jpg,1,001,2023-06-12_14h05.29.139,choiceRTT,2021.2.3,Win32,60.13590715,,0.0222,,,,,,,1,2,11,3,1
b,1,,,,,,,,,-0.6947,,,,,,,1.5,images/target_plus.jpg,1,001,2023-06-12_14h05.29.139,choiceRTT,2021.2.3,Win32,60.13590715,,0.8053,,,,,,,1,3,12,4,1
v,1,,,,,,,,,-0.9903,,,,,,,1.3,images/target_square.jpg,1,001,2023-06-12_14h05.29.139,choiceRTT,2021.2.3,Win32,60.13590715,,0.3097,,,,,,,1,4,13,8,1
c,0,,,,,,,,,-0.9032,,,,,,,1.3,images/target_plus.jpg,1,001,2023-06-12_14h05.29.139,choiceRTT,2021.2.3,Win32,60.13590715,,0.3968,,,,,,,1,5,14,1,1
v,0,,,,,,,,,-0.7174,,,,,,,1.1,images/target_cross.jpg,1,001,2023-06-12_14h05.29.139,choiceRTT,2021.2.3,Win32,60.13590715,,0.3826,,,,,,,1,6,15,0,1
b,1,,,,,,,,,-0.7383,,,,,,,1.1,images/target_plus.jpg,1,001,2023-06-12_14h05.29.139,choiceRTT,2021.2.3,Win32,60.13590715,,0.3617,,,,,,,1,7,16,7,1
v,0,,,,,,,,,-1.1737,,,,,,,1.5,images/target_cross.jpg,1,001,2023-06-12_14h05.29.139,choiceRTT,2021.2.3,Win32,60.13590715,,0.3263,,,,,,,1,8,17,6,1
