participant,session,date,expName,psychopyVersion,OS,frameRate,keyResp.keys,keyResp.corr,mouseResp.x,mouseResp.y,mouseResp.leftButton,mouseResp.midButton,mouseResp.rightButton,mouseResp.time,mouseResp.clicked_name,correctMouseResp,trialRespTimes,moveOnKeys.keys,PracticeLoop.thisRepN,PracticeLoop.thisTrialN,PracticeLoop.thisN,PracticeLoop.thisIndex,PracticeLoop.ran,onsetTime,thisImage,key_resp.keys,mouse.x,mouse.y,mouse.leftButton,mouse.midButton,mouse.rightButton,ExptLoop.thisRepN,ExptLoop.thisTrialN,ExptLoop.thisN,ExptLoop.thisIndex,ExptLoop.ran
1,001,2023-12-13_11h13.52.348,choiceRTT,2023.1.3,Win32,59.95203837,,,,,,,,,,,,,,,,,,,,,,,,,,,,,,
1,001,2023-12-13_11h13.52.348,choiceRTT,2023.1.3,Win32,59.95203837,,0,-0.216666667,-0.265740741,1,0,0,4.2335,cross_button,0,3.1335,,0,0,0,7,1,1.1,images/target_plus.jpg,,,,,,,,,,,
1,001,2023-12-13_11h13.52.348,choiceRTT,2023.1.3,Win32,59.95203837,,0,-0.022222222,-0.236111111,1,0,0,2.33479,square_button,1,1.23479,,0,1,1,5,1,1.1,images/target_square.jpg,,,,,,,,,,,
1,001,2023-12-13_11h13.52.348,choiceRTT,2023.1.3,Win32,59.95203837,,0,0.438888889,0.362037037,1,0,0,241.82461,square_button,0,240.32461,,0,2,2,4,1,1.5,images/target_plus.jpg,,,,,,,,,,,
1,001,2023-12-13_11h13.52.348,choiceRTT,2023.1.3,Win32,59.95203837,,0,-0.264189886,-0.244066047,1,0,0,2.41657,cross_button,1,1.31657,,0,3,3,0,1,1.1,images/target_cross.jpg,,,,,,,,,,,
1,001,2023-12-13_11h13.52.348,choiceRTT,2023.1.3,Win32,59.95203837,,0,0,-0.266769866,1,0,0,2.11825,square_button,1,0.81825,,0,4,4,8,1,1.3,images/target_square.jpg,,,,,,,,,,,
1,001,2023-12-13_11h13.52.348,choiceRTT,2023.1.3,Win32,59.95203837,,0,0.243550052,-0.223426213,1,0,0,2.168325,plus_button,1,0.868325,,0,5,5,1,1,1.3,images/target_plus.jpg,,,,,,,,,,,
1,001,2023-12-13_11h13.52.348,choiceRTT,2023.1.3,Win32,59.95203837,,0,-0.28379773,-0.201754386,1,0,0,2.385275,cross_button,1,1.085275,,0,6,6,3,1,1.3,images/target_cross.jpg,,,,,,,,,,,
1,001,2023-12-13_11h13.52.348,choiceRTT,2023.1.3,Win32,59.95203837,,0,-0.232198142,-0.237874097,1,0,0,2.718835,cross_button,1,1.218835,,0,7,7,6,1,1.5,images/target_cross.jpg,,,,,,,,,,,
1,001,2023-12-13_11h13.52.348,choiceRTT,2023.1.3,Win32,59.95203837,,0,0.059855521,-0.25128999,1,0,0,2.46864,square_button,1,0.96864,,0,8,8,2,1,1.5,images/target_square.jpg,,,,,,,,,,,
1,001,2023-12-13_11h13.52.348,choiceRTT,2023.1.3,Win32,59.95203837,,,,,,,,,,,,,,,,,,,,,0,-0.250257998,1,0,0,,,,,
1,001,2023-12-13_11h13.52.348,choiceRTT,2023.1.3,Win32,59.95203837,,0,-0.244582043,-0.263673891,1,0,0,2.18342,cross_button,1,0.88342,,,,,,,1.3,images/target_cross.jpg,,,,,,,0,0,0,3,1
1,001,2023-12-13_11h13.52.348,choiceRTT,2023.1.3,Win32,59.95203837,,0,0.233230134,-0.229618163,1,0,0,2.1848,plus_button,1,0.8848,,,,,,,1.3,images/target_plus.jpg,,,,,,,0,1,1,1,1
1,001,2023-12-13_11h13.52.348,choiceRTT,2023.1.3,Win32,59.95203837,,0,-0.298245614,-0.261609907,1,0,0,2.4519,cross_button,0,0.9519,,,,,,,1.5,images/target_plus.jpg,,,,,,,0,2,2,4,1
1,001,2023-12-13_11h13.52.348,choiceRTT,2023.1.3,Win32,59.95203837,,0,-0.245614035,-0.245098039,1,0,0,2.05152,cross_button,1,0.95152,,,,,,,1.1,images/target_cross.jpg,,,,,,,0,3,3,0,1
1,001,2023-12-13_11h13.52.348,choiceRTT,2023.1.3,Win32,59.95203837,,0,0.338493292,-0.231682147,1,0,0,2.01825,plus_button,1,0.91825,,,,,,,1.1,images/target_plus.jpg,,,,,,,0,4,4,7,1
1,001,2023-12-13_11h13.52.348,choiceRTT,2023.1.3,Win32,59.95203837,,0,-0.049535604,-0.277089783,1,0,0,2.01812,square_button,1,0.71812,,,,,,,1.3,images/target_square.jpg,,,,,,,0,5,5,8,1
1,001,2023-12-13_11h13.52.348,choiceRTT,2023.1.3,Win32,59.95203837,,0,-0.206398349,-0.262641899,1,0,0,2.452,cross_button,1,0.952,,,,,,,1.5,images/target_cross.jpg,,,,,,,0,6,6,6,1
1,001,2023-12-13_11h13.52.348,choiceRTT,2023.1.3,Win32,59.95203837,,0,0.01754386,-0.256449948,1,0,0,1.884725,square_button,1,0.784725,,,,,,,1.1,images/target_square.jpg,,,,,,,0,7,7,5,1
1,001,2023-12-13_11h13.52.348,choiceRTT,2023.1.3,Win32,59.95203837,,0,-0.310629515,-0.256449948,1,0,0,2.585365,cross_button,0,1.085365,,,,,,,1.5,images/target_square.jpg,,,,,,,0,8,8,2,1
1,001,2023-12-13_11h13.52.348,choiceRTT,2023.1.3,Win32,59.95203837,,0,-0.016511868,-0.232714138,1,0,0,1.901365,square_button,1,0.601365,,,,,,,1.3,images/target_square.jpg,,,,,,,1,0,9,8,1
1,001,2023-12-13_11h13.52.348,choiceRTT,2023.1.3,Win32,59.95203837,,0,-0.220846233,-0.270897833,1,0,0,2.435265,cross_button,1,0.935265,,,,,,,1.5,images/target_cross.jpg,,,,,,,1,1,10,6,1
1,001,2023-12-13_11h13.52.348,choiceRTT,2023.1.3,Win32,59.95203837,,0,0.30753354,-0.253353973,1,0,0,2.018205,plus_button,1,0.918205,,,,,,,1.1,images/target_plus.jpg,,,,,,,1,2,11,7,1
1,001,2023-12-13_11h13.52.348,choiceRTT,2023.1.3,Win32,59.95203837,,0,-0.294117647,-0.264705882,1,0,0,2.285135,cross_button,1,1.185135,,,,,,,1.1,images/target_cross.jpg,,,,,,,1,3,12,0,1
1,001,2023-12-13_11h13.52.348,choiceRTT,2023.1.3,Win32,59.95203837,,0,-0.019607843,-0.272961816,1,0,0,1.81794,square_button,1,0.71794,,,,,,,1.1,images/target_square.jpg,,,,,,,1,4,13,5,1
1,001,2023-12-13_11h13.52.348,choiceRTT,2023.1.3,Win32,59.95203837,,0,0.009287926,-0.260577915,1,0,0,2.21842,square_button,1,0.71842,,,,,,,1.5,images/target_square.jpg,,,,,,,1,5,14,2,1
1,001,2023-12-13_11h13.52.348,choiceRTT,2023.1.3,Win32,59.95203837,,0,-0.219814241,-0.276057792,1,0,0,2.20176,cross_button,1,0.90176,,,,,,,1.3,images/target_cross.jpg,,,,,,,1,6,15,3,1
1,001,2023-12-13_11h13.52.348,choiceRTT,2023.1.3,Win32,59.95203837,,0,0.404540764,-0.249226006,1,0,0,2.418815,plus_button,1,1.118815,,,,,,,1.3,images/target_plus.jpg,,,,,,,1,7,16,1,1
1,001,2023-12-13_11h13.52.348,choiceRTT,2023.1.3,Win32,59.95203837,,0,-0.046439628,-0.243034056,1,0,0,2.618815,square_button,0,1.118815,,,,,,,1.5,images/target_plus.jpg,,,,,,,1,8,17,4,1
1,001,2023-12-13_11h13.52.348,choiceRTT,2023.1.3,Win32,59.95203837,,,,,,,,,,,,,,,,,,,,,,,,,,,,,,
