response.keys,response.corr,mouseResp.x,mouseResp.y,mouseResp.leftButton,mouseResp.midButton,mouseResp.rightButton,mouseResp.clicked_name,practiceTrials.thisRepN,practiceTrials.thisTrialN,practiceTrials.thisN,practiceTrials.thisIndex,practiceTrials.ran,practiceTrials.order,isi,xPos,corrAns,participant,session,date,expName,psychopyVersion,frameRate,mainTrials.thisRepN,mainTrials.thisTrialN,mainTrials.thisN,mainTrials.thisIndex,mainTrials.ran,mainTrials.order
,0,-0.135185185,0.009259259,1,0,0,targImage,1,0,8,1,1,7,1,-0.125,v,2,001,2021-01-19_22h18.19.658,choiceRTT,3.1.3,60,,,,,,
,0,0.084259259,-0.025925926,1,0,0,targImage,1,0,8,2,1,7,1,0.125,b,2,001,2021-01-19_22h18.19.658,choiceRTT,3.1.3,60,,,,,,
,0,-0.342592593,-0.011111111,1,0,0,targImage,1,0,8,0,1,7,1,-0.375,c,2,001,2021-01-19_22h18.19.658,choiceRTT,3.1.3,60,,,,,,
,0,0.368518519,0.019444444,1,0,0,targImage,1,0,8,3,1,7,1,0.375,n,2,001,2021-01-19_22h18.19.658,choiceRTT,3.1.3,60,,,,,,
,0,0.171296296,-0.009259259,1,0,0,targImage,1,0,8,6,1,7,1,0.125,b,2,001,2021-01-19_22h18.19.658,choiceRTT,3.1.3,60,,,,,,
,0,-0.332407407,-0.011111111,1,0,0,targImage,1,0,8,4,1,7,1,-0.375,c,2,001,2021-01-19_22h18.19.658,choiceRTT,3.1.3,60,,,,,,
,0,0.444444444,-0.026851852,1,0,0,targImage,1,0,8,7,1,7,1,0.375,n,2,001,2021-01-19_22h18.19.658,choiceRTT,3.1.3,60,,,,,,
,0,-0.12037037,-0.013888889,1,0,0,targImage,1,0,8,5,1,7,1,-0.125,v,2,001,2021-01-19_22h18.19.658,choiceRTT,3.1.3,60,,,,,,
,0,-0.112962963,-0.003703704,1,0,0,targImage,,,,,,,2.7776,-0.125,v,2,001,2021-01-19_22h18.19.658,choiceRTT,3.1.3,60,1,0,40,33,1,39
,0,0.359259259,0.039814815,1,0,0,targImage,,,,,,,1.4444,0.375,n,2,001,2021-01-19_22h18.19.658,choiceRTT,3.1.3,60,1,0,40,11,1,39
,0,-0.348148148,0.002777778,1,0,0,targImage,,,,,,,2.111,-0.375,c,2,001,2021-01-19_22h18.19.658,choiceRTT,3.1.3,60,1,0,40,20,1,39
,0,-0.097222222,-0.008333333,1,0,0,targImage,,,,,,,1,-0.125,v,2,001,2021-01-19_22h18.19.658,choiceRTT,3.1.3,60,1,0,40,1,1,39
,0,0.137962963,-0.006481481,1,0,0,targImage,,,,,,,1.6666,0.125,b,2,001,2021-01-19_22h18.19.658,choiceRTT,3.1.3,60,1,0,40,14,1,39
,0,-0.325,0.022222222,1,0,0,targImage,,,,,,,1.8888,-0.375,c,2,001,2021-01-19_22h18.19.658,choiceRTT,3.1.3,60,1,0,40,16,1,39
,0,-0.282407407,-0.001851852,1,0,0,targImage,,,,,,,1.6666,-0.375,c,2,001,2021-01-19_22h18.19.658,choiceRTT,3.1.3,60,1,0,40,12,1,39
,0,-0.091666667,-0.008333333,1,0,0,targImage,,,,,,,2.9998,-0.125,v,2,001,2021-01-19_22h18.19.658,choiceRTT,3.1.3,60,1,0,40,37,1,39
,0,0.319444444,0.036111111,1,0,0,targImage,,,,,,,2.3332,0.375,n,2,001,2021-01-19_22h18.19.658,choiceRTT,3.1.3,60,1,0,40,27,1,39
,0,-0.312037037,0.003703704,1,0,0,targImage,,,,,,,1.2222,-0.375,c,2,001,2021-01-19_22h18.19.658,choiceRTT,3.1.3,60,1,0,40,4,1,39
,0,0.308333333,0.013888889,1,0,0,targImage,,,,,,,2.111,0.375,n,2,001,2021-01-19_22h18.19.658,choiceRTT,3.1.3,60,1,0,40,23,1,39
,0,0.138888889,0.02037037,1,0,0,targImage,,,,,,,2.5554,0.125,b,2,001,2021-01-19_22h18.19.658,choiceRTT,3.1.3,60,1,0,40,30,1,39
,0,-0.413888889,0.012962963,1,0,0,targImage,,,,,,,1.4444,-0.375,c,2,001,2021-01-19_22h18.19.658,choiceRTT,3.1.3,60,1,0,40,8,1,39
,0,0.140740741,0.021296296,1,0,0,targImage,,,,,,,2.111,0.125,b,2,001,2021-01-19_22h18.19.658,choiceRTT,3.1.3,60,1,0,40,22,1,39
,0,-0.091666667,-0.005555556,1,0,0,targImage,,,,,,,1.8888,-0.125,v,2,001,2021-01-19_22h18.19.658,choiceRTT,3.1.3,60,1,0,40,17,1,39
,0,0.062037037,0.007407407,1,0,0,targImage,,,,,,,1.4444,0.125,b,2,001,2021-01-19_22h18.19.658,choiceRTT,3.1.3,60,1,0,40,10,1,39
,0,-0.356481481,0.047222222,1,0,0,targImage,,,,,,,2.7776,-0.375,c,2,001,2021-01-19_22h18.19.658,choiceRTT,3.1.3,60,1,0,40,32,1,39
,0,0.128703704,0.031481481,1,0,0,targImage,,,,,,,2.9998,0.125,b,2,001,2021-01-19_22h18.19.658,choiceRTT,3.1.3,60,1,0,40,38,1,39
,0,-0.117592593,0.014814815,1,0,0,targImage,,,,,,,2.111,-0.125,v,2,001,2021-01-19_22h18.19.658,choiceRTT,3.1.3,60,1,0,40,21,1,39
,0,0.309259259,0.012962963,1,0,0,targImage,,,,,,,1,0.375,n,2,001,2021-01-19_22h18.19.658,choiceRTT,3.1.3,60,1,0,40,3,1,39
,0,0.359259259,0.000925926,1,0,0,targImage,,,,,,,2.9998,0.375,n,2,001,2021-01-19_22h18.19.658,choiceRTT,3.1.3,60,1,0,40,39,1,39
,0,-0.451851852,-0.02962963,1,0,0,targImage,,,,,,,2.3332,-0.375,c,2,001,2021-01-19_22h18.19.658,choiceRTT,3.1.3,60,1,0,40,24,1,39
,0,-0.111111111,0.008333333,1,0,0,targImage,,,,,,,1.6666,-0.125,v,2,001,2021-01-19_22h18.19.658,choiceRTT,3.1.3,60,1,0,40,13,1,39
,0,0.051851852,0.008333333,1,0,0,targImage,,,,,,,1,0.125,b,2,001,2021-01-19_22h18.19.658,choiceRTT,3.1.3,60,1,0,40,2,1,39
,0,0.119444444,0.007407407,1,0,0,targImage,,,,,,,2.7776,0.125,b,2,001,2021-01-19_22h18.19.658,choiceRTT,3.1.3,60,1,0,40,34,1,39
,0,-0.072222222,-0.019444444,1,0,0,targImage,,,,,,,1.4444,-0.125,v,2,001,2021-01-19_22h18.19.658,choiceRTT,3.1.3,60,1,0,40,9,1,39
,0,0.366666667,0.003703704,1,0,0,targImage,,,,,,,2.7776,0.375,n,2,001,2021-01-19_22h18.19.658,choiceRTT,3.1.3,60,1,0,40,35,1,39
,0,0.352777778,0.018518519,1,0,0,targImage,,,,,,,2.5554,0.375,n,2,001,2021-01-19_22h18.19.658,choiceRTT,3.1.3,60,1,0,40,31,1,39
,0,-0.328703704,-0.028703704,1,0,0,targImage,,,,,,,1,-0.375,c,2,001,2021-01-19_22h18.19.658,choiceRTT,3.1.3,60,1,0,40,0,1,39
,0,0.087962963,-0.000925926,1,0,0,targImage,,,,,,,1.2222,0.125,b,2,001,2021-01-19_22h18.19.658,choiceRTT,3.1.3,60,1,0,40,6,1,39
,0,-0.322222222,0.02962963,1,0,0,targImage,,,,,,,2.5554,-0.375,c,2,001,2021-01-19_22h18.19.658,choiceRTT,3.1.3,60,1,0,40,28,1,39
,0,0.116666667,0.011111111,1,0,0,targImage,,,,,,,1.8888,0.125,b,2,001,2021-01-19_22h18.19.658,choiceRTT,3.1.3,60,1,0,40,18,1,39
