my.response.keys, my.response.corr, my.response.rt, my.mouseResp.x, my.mouseResp.y, my.mouseResp.leftButton, my.mouseResp.midButton, my.mouseResp.rightButton, my.mouseResp.RT, my.mouseResp.clicked_name, my.practiceTrials.thisRepN, my.practiceTrials.thisTrialN, my.practiceTrials.thisN, my.practiceTrials.thisIndex, my.practiceTrials.ran, my.practiceTrials.order, isi, xPos, corrAns, participant, session, date, expName, frameRate, my.practiceTrials.thisRepN, my.practiceTrials.thisTrialN, my.practiceTrials.thisN, my.practiceTrials.thisIndex, my.practiceTrials.ran, my.practiceTrials.order, isi, xPos, corrAns, my.mainTrials.thisRepN, my.mainTrials.thisTrialN, my.mainTrials.thisN, my.mainTrials.thisIndex, my.mainTrials.ran, my.mainTrials.order, isi, xPos, corrAns, participant, session, date, expName, frameRate
, 0, , 0.32625, -0.02625, 1, 0, 0, 2.7880000000000003, my.targImage, 1, 0, 8, 3, 1, 7, 1, 0.375, n, 314, 001, Fri Jul 20 2018 23:26:35 GMT+0800 (CST), choiceRTT, 60, 1, 0, 8, 3, 1, 7, 1, 0.375, n, undefined, undefined, undefined, undefined, undefined, undefined, 1, 0.375, n, 314, 001, Fri Jul 20 2018 23:26:35 GMT+0800 (CST), choiceRTT, 60
, 0, , -0.08375, 0.00625, 1, 0, 0, 0.7340000000000018, my.targImage, 1, 0, 8, 3, 1, 7, 1, 0.375, n, 314, 001, Fri Jul 20 2018 23:26:35 GMT+0800 (CST), choiceRTT, 60, 1, 0, 8, 3, 1, 7, 1, 0.375, n, undefined, undefined, undefined, undefined, undefined, undefined, 1, 0.375, n, 314, 001, Fri Jul 20 2018 23:26:35 GMT+0800 (CST), choiceRTT, 60
, 0, , -0.3625, 0.0225, 1, 0, 0, 2.0700000000000003, my.targImage, 1, 0, 8, 3, 1, 7, 1, 0.375, n, 314, 001, Fri Jul 20 2018 23:26:35 GMT+0800 (CST), choiceRTT, 60, 1, 0, 8, 3, 1, 7, 1, 0.375, n, undefined, undefined, undefined, undefined, undefined, undefined, 1, 0.375, n, 314, 001, Fri Jul 20 2018 23:26:35 GMT+0800 (CST), choiceRTT, 60
, 0, , 0.12875, -0.005, 1, 0, 0, 0.5030000000000001, my.targImage, 1, 0, 8, 3, 1, 7, 1, 0.375, n, 314, 001, Fri Jul 20 2018 23:26:35 GMT+0800 (CST), choiceRTT, 60, 1, 0, 8, 3, 1, 7, 1, 0.375, n, undefined, undefined, undefined, undefined, undefined, undefined, 1, 0.375, n, 314, 001, Fri Jul 20 2018 23:26:35 GMT+0800 (CST), choiceRTT, 60
, 0, , -0.10375, 0.00125, 1, 0, 0, 0.5, my.targImage, 1, 0, 8, 3, 1, 7, 1, 0.375, n, 314, 001, Fri Jul 20 2018 23:26:35 GMT+0800 (CST), choiceRTT, 60, 1, 0, 8, 3, 1, 7, 1, 0.375, n, undefined, undefined, undefined, undefined, undefined, undefined, 1, 0.375, n, 314, 001, Fri Jul 20 2018 23:26:35 GMT+0800 (CST), choiceRTT, 60
, 0, , -0.3725, 0.015, 1, 0, 0, 0.568000000000005, my.targImage, 1, 0, 8, 3, 1, 7, 1, 0.375, n, 314, 001, Fri Jul 20 2018 23:26:35 GMT+0800 (CST), choiceRTT, 60, 1, 0, 8, 3, 1, 7, 1, 0.375, n, undefined, undefined, undefined, undefined, undefined, undefined, 1, 0.375, n, 314, 001, Fri Jul 20 2018 23:26:35 GMT+0800 (CST), choiceRTT, 60
, 0, , 0.14375, -0.00875, 1, 0, 0, 0.48400000000000176, my.targImage, 1, 0, 8, 3, 1, 7, 1, 0.375, n, 314, 001, Fri Jul 20 2018 23:26:35 GMT+0800 (CST), choiceRTT, 60, 1, 0, 8, 3, 1, 7, 1, 0.375, n, undefined, undefined, undefined, undefined, undefined, undefined, 1, 0.375, n, 314, 001, Fri Jul 20 2018 23:26:35 GMT+0800 (CST), choiceRTT, 60
, 0, , 0.3825, -0.01125, 1, 0, 0, 0.6340000000000003, my.targImage, 1, 0, 8, 3, 1, 7, 1, 0.375, n, 314, 001, Fri Jul 20 2018 23:26:35 GMT+0800 (CST), choiceRTT, 60, 1, 0, 8, 3, 1, 7, 1, 0.375, n, undefined, undefined, undefined, undefined, undefined, undefined, 1, 0.375, n, 314, 001, Fri Jul 20 2018 23:26:35 GMT+0800 (CST), choiceRTT, 60
, 0, , 0.3125, -0.00875, 1, 0, 0, 0.6499999999999986, my.targImage, undefined, undefined, undefined, undefined, undefined, undefined, 1.8888, 0.125, b, 314, 001, Fri Jul 20 2018 23:26:35 GMT+0800 (CST), choiceRTT, 60, undefined, undefined, undefined, undefined, undefined, undefined, 1.8888, 0.125, b, 1, 0, 40, 18, 1, 39, 1.8888, 0.125, b, 314, 001, Fri Jul 20 2018 23:26:35 GMT+0800 (CST), choiceRTT, 60
, 0, , -0.325, -0.01, 1, 0, 0, 0.6820000000000022, my.targImage, undefined, undefined, undefined, undefined, undefined, undefined, 1.8888, 0.125, b, 314, 001, Fri Jul 20 2018 23:26:35 GMT+0800 (CST), choiceRTT, 60, undefined, undefined, undefined, undefined, undefined, undefined, 1.8888, 0.125, b, 1, 0, 40, 18, 1, 39, 1.8888, 0.125, b, 314, 001, Fri Jul 20 2018 23:26:35 GMT+0800 (CST), choiceRTT, 60
, 0, , 0.10875, -0.015, 1, 0, 0, 0.5010000000000048, my.targImage, undefined, undefined, undefined, undefined, undefined, undefined, 1.8888, 0.125, b, 314, 001, Fri Jul 20 2018 23:26:35 GMT+0800 (CST), choiceRTT, 60, undefined, undefined, undefined, undefined, undefined, undefined, 1.8888, 0.125, b, 1, 0, 40, 18, 1, 39, 1.8888, 0.125, b, 314, 001, Fri Jul 20 2018 23:26:35 GMT+0800 (CST), choiceRTT, 60
, 0, , -0.14875, -0.0075, 1, 0, 0, 0.48400000000000176, my.targImage, undefined, undefined, undefined, undefined, undefined, undefined, 1.8888, 0.125, b, 314, 001, Fri Jul 20 2018 23:26:35 GMT+0800 (CST), choiceRTT, 60, undefined, undefined, undefined, undefined, undefined, undefined, 1.8888, 0.125, b, 1, 0, 40, 18, 1, 39, 1.8888, 0.125, b, 314, 001, Fri Jul 20 2018 23:26:35 GMT+0800 (CST), choiceRTT, 60
, 0, , -0.10625, -0.005, 1, 0, 0, 0.482999999999997, my.targImage, undefined, undefined, undefined, undefined, undefined, undefined, 1.8888, 0.125, b, 314, 001, Fri Jul 20 2018 23:26:35 GMT+0800 (CST), choiceRTT, 60, undefined, undefined, undefined, undefined, undefined, undefined, 1.8888, 0.125, b, 1, 0, 40, 18, 1, 39, 1.8888, 0.125, b, 314, 001, Fri Jul 20 2018 23:26:35 GMT+0800 (CST), choiceRTT, 60
, 0, , 0.1675, -0.0175, 1, 0, 0, 0.41799999999999926, my.targImage, undefined, undefined, undefined, undefined, undefined, undefined, 1.8888, 0.125, b, 314, 001, Fri Jul 20 2018 23:26:35 GMT+0800 (CST), choiceRTT, 60, undefined, undefined, undefined, undefined, undefined, undefined, 1.8888, 0.125, b, 1, 0, 40, 18, 1, 39, 1.8888, 0.125, b, 314, 001, Fri Jul 20 2018 23:26:35 GMT+0800 (CST), choiceRTT, 60
, 0, , 0.3725, -0.02625, 1, 0, 0, 0.5190000000000055, my.targImage, undefined, undefined, undefined, undefined, undefined, undefined, 1.8888, 0.125, b, 314, 001, Fri Jul 20 2018 23:26:35 GMT+0800 (CST), choiceRTT, 60, undefined, undefined, undefined, undefined, undefined, undefined, 1.8888, 0.125, b, 1, 0, 40, 18, 1, 39, 1.8888, 0.125, b, 314, 001, Fri Jul 20 2018 23:26:35 GMT+0800 (CST), choiceRTT, 60
, 0, , -0.11625, 0, 1, 0, 0, 0.5159999999999911, my.targImage, undefined, undefined, undefined, undefined, undefined, undefined, 1.8888, 0.125, b, 314, 001, Fri Jul 20 2018 23:26:35 GMT+0800 (CST), choiceRTT, 60, undefined, undefined, undefined, undefined, undefined, undefined, 1.8888, 0.125, b, 1, 0, 40, 18, 1, 39, 1.8888, 0.125, b, 314, 001, Fri Jul 20 2018 23:26:35 GMT+0800 (CST), choiceRTT, 60
, 0, , 0.33125, -0.01875, 1, 0, 0, 0.6159999999999997, my.targImage, undefined, undefined, undefined, undefined, undefined, undefined, 1.8888, 0.125, b, 314, 001, Fri Jul 20 2018 23:26:35 GMT+0800 (CST), choiceRTT, 60, undefined, undefined, undefined, undefined, undefined, undefined, 1.8888, 0.125, b, 1, 0, 40, 18, 1, 39, 1.8888, 0.125, b, 314, 001, Fri Jul 20 2018 23:26:35 GMT+0800 (CST), choiceRTT, 60
, 0, , -0.3375, 0.0225, 1, 0, 0, 0.7000000000000028, my.targImage, undefined, undefined, undefined, undefined, undefined, undefined, 1.8888, 0.125, b, 314, 001, Fri Jul 20 2018 23:26:35 GMT+0800 (CST), choiceRTT, 60, undefined, undefined, undefined, undefined, undefined, undefined, 1.8888, 0.125, b, 1, 0, 40, 18, 1, 39, 1.8888, 0.125, b, 314, 001, Fri Jul 20 2018 23:26:35 GMT+0800 (CST), choiceRTT, 60
, 0, , -0.2825, 0.02, 1, 0, 0, 0.6339999999999861, my.targImage, undefined, undefined, undefined, undefined, undefined, undefined, 1.8888, 0.125, b, 314, 001, Fri Jul 20 2018 23:26:35 GMT+0800 (CST), choiceRTT, 60, undefined, undefined, undefined, undefined, undefined, undefined, 1.8888, 0.125, b, 1, 0, 40, 18, 1, 39, 1.8888, 0.125, b, 314, 001, Fri Jul 20 2018 23:26:35 GMT+0800 (CST), choiceRTT, 60
, 0, , -0.31375, 0.0125, 1, 0, 0, 0.5829999999999984, my.targImage, undefined, undefined, undefined, undefined, undefined, undefined, 1.8888, 0.125, b, 314, 001, Fri Jul 20 2018 23:26:35 GMT+0800 (CST), choiceRTT, 60, undefined, undefined, undefined, undefined, undefined, undefined, 1.8888, 0.125, b, 1, 0, 40, 18, 1, 39, 1.8888, 0.125, b, 314, 001, Fri Jul 20 2018 23:26:35 GMT+0800 (CST), choiceRTT, 60
, 0, , 0.34875, 0, 1, 0, 0, 0.8670000000000044, my.targImage, undefined, undefined, undefined, undefined, undefined, undefined, 1.8888, 0.125, b, 314, 001, Fri Jul 20 2018 23:26:35 GMT+0800 (CST), choiceRTT, 60, undefined, undefined, undefined, undefined, undefined, undefined, 1.8888, 0.125, b, 1, 0, 40, 18, 1, 39, 1.8888, 0.125, b, 314, 001, Fri Jul 20 2018 23:26:35 GMT+0800 (CST), choiceRTT, 60
, 0, , 0.09125, -0.00875, 1, 0, 0, 0.5669999999999931, my.targImage, undefined, undefined, undefined, undefined, undefined, undefined, 1.8888, 0.125, b, 314, 001, Fri Jul 20 2018 23:26:35 GMT+0800 (CST), choiceRTT, 60, undefined, undefined, undefined, undefined, undefined, undefined, 1.8888, 0.125, b, 1, 0, 40, 18, 1, 39, 1.8888, 0.125, b, 314, 001, Fri Jul 20 2018 23:26:35 GMT+0800 (CST), choiceRTT, 60
, 0, , 0.10625, -0.00375, 1, 0, 0, 0.5009999999999906, my.targImage, undefined, undefined, undefined, undefined, undefined, undefined, 1.8888, 0.125, b, 314, 001, Fri Jul 20 2018 23:26:35 GMT+0800 (CST), choiceRTT, 60, undefined, undefined, undefined, undefined, undefined, undefined, 1.8888, 0.125, b, 1, 0, 40, 18, 1, 39, 1.8888, 0.125, b, 314, 001, Fri Jul 20 2018 23:26:35 GMT+0800 (CST), choiceRTT, 60
, 0, , 0.095, -0.0125, 1, 0, 0, 0.4819999999999993, my.targImage, undefined, undefined, undefined, undefined, undefined, undefined, 1.8888, 0.125, b, 314, 001, Fri Jul 20 2018 23:26:35 GMT+0800 (CST), choiceRTT, 60, undefined, undefined, undefined, undefined, undefined, undefined, 1.8888, 0.125, b, 1, 0, 40, 18, 1, 39, 1.8888, 0.125, b, 314, 001, Fri Jul 20 2018 23:26:35 GMT+0800 (CST), choiceRTT, 60
, 0, , -0.29, 0.0175, 1, 0, 0, 0.534000000000006, my.targImage, undefined, undefined, undefined, undefined, undefined, undefined, 1.8888, 0.125, b, 314, 001, Fri Jul 20 2018 23:26:35 GMT+0800 (CST), choiceRTT, 60, undefined, undefined, undefined, undefined, undefined, undefined, 1.8888, 0.125, b, 1, 0, 40, 18, 1, 39, 1.8888, 0.125, b, 314, 001, Fri Jul 20 2018 23:26:35 GMT+0800 (CST), choiceRTT, 60
, 0, , -0.10125, 0.00125, 1, 0, 0, 0.5010000000000048, my.targImage, undefined, undefined, undefined, undefined, undefined, undefined, 1.8888, 0.125, b, 314, 001, Fri Jul 20 2018 23:26:35 GMT+0800 (CST), choiceRTT, 60, undefined, undefined, undefined, undefined, undefined, undefined, 1.8888, 0.125, b, 1, 0, 40, 18, 1, 39, 1.8888, 0.125, b, 314, 001, Fri Jul 20 2018 23:26:35 GMT+0800 (CST), choiceRTT, 60
, 0, , -0.38, 0.00375, 1, 0, 0, 0.6670000000000016, my.targImage, undefined, undefined, undefined, undefined, undefined, undefined, 1.8888, 0.125, b, 314, 001, Fri Jul 20 2018 23:26:35 GMT+0800 (CST), choiceRTT, 60, undefined, undefined, undefined, undefined, undefined, undefined, 1.8888, 0.125, b, 1, 0, 40, 18, 1, 39, 1.8888, 0.125, b, 314, 001, Fri Jul 20 2018 23:26:35 GMT+0800 (CST), choiceRTT, 60
, 0, , 0.37, 0.015, 1, 0, 0, 0.6159999999999997, my.targImage, undefined, undefined, undefined, undefined, undefined, undefined, 1.8888, 0.125, b, 314, 001, Fri Jul 20 2018 23:26:35 GMT+0800 (CST), choiceRTT, 60, undefined, undefined, undefined, undefined, undefined, undefined, 1.8888, 0.125, b, 1, 0, 40, 18, 1, 39, 1.8888, 0.125, b, 314, 001, Fri Jul 20 2018 23:26:35 GMT+0800 (CST), choiceRTT, 60
, 0, , -0.13125, 0.0075, 1, 0, 0, 0.6509999999999962, my.targImage, undefined, undefined, undefined, undefined, undefined, undefined, 1.8888, 0.125, b, 314, 001, Fri Jul 20 2018 23:26:35 GMT+0800 (CST), choiceRTT, 60, undefined, undefined, undefined, undefined, undefined, undefined, 1.8888, 0.125, b, 1, 0, 40, 18, 1, 39, 1.8888, 0.125, b, 314, 001, Fri Jul 20 2018 23:26:35 GMT+0800 (CST), choiceRTT, 60
, 0, , 0.3625, 0.00875, 1, 0, 0, 0.6829999999999927, my.targImage, undefined, undefined, undefined, undefined, undefined, undefined, 1.8888, 0.125, b, 314, 001, Fri Jul 20 2018 23:26:35 GMT+0800 (CST), choiceRTT, 60, undefined, undefined, undefined, undefined, undefined, undefined, 1.8888, 0.125, b, 1, 0, 40, 18, 1, 39, 1.8888, 0.125, b, 314, 001, Fri Jul 20 2018 23:26:35 GMT+0800 (CST), choiceRTT, 60
, 0, , 0.39125, -0.005, 1, 0, 0, 0.6009999999999991, my.targImage, undefined, undefined, undefined, undefined, undefined, undefined, 1.8888, 0.125, b, 314, 001, Fri Jul 20 2018 23:26:35 GMT+0800 (CST), choiceRTT, 60, undefined, undefined, undefined, undefined, undefined, undefined, 1.8888, 0.125, b, 1, 0, 40, 18, 1, 39, 1.8888, 0.125, b, 314, 001, Fri Jul 20 2018 23:26:35 GMT+0800 (CST), choiceRTT, 60
, 0, , -0.31875, 0.01625, 1, 0, 0, 0.6010000000000133, my.targImage, undefined, undefined, undefined, undefined, undefined, undefined, 1.8888, 0.125, b, 314, 001, Fri Jul 20 2018 23:26:35 GMT+0800 (CST), choiceRTT, 60, undefined, undefined, undefined, undefined, undefined, undefined, 1.8888, 0.125, b, 1, 0, 40, 18, 1, 39, 1.8888, 0.125, b, 314, 001, Fri Jul 20 2018 23:26:35 GMT+0800 (CST), choiceRTT, 60
, 0, , -0.0875, 0.0175, 1, 0, 0, 0.5, my.targImage, undefined, undefined, undefined, undefined, undefined, undefined, 1.8888, 0.125, b, 314, 001, Fri Jul 20 2018 23:26:35 GMT+0800 (CST), choiceRTT, 60, undefined, undefined, undefined, undefined, undefined, undefined, 1.8888, 0.125, b, 1, 0, 40, 18, 1, 39, 1.8888, 0.125, b, 314, 001, Fri Jul 20 2018 23:26:35 GMT+0800 (CST), choiceRTT, 60
, 0, , -0.335, 0.0375, 1, 0, 0, 0.7349999999999994, my.targImage, undefined, undefined, undefined, undefined, undefined, undefined, 1.8888, 0.125, b, 314, 001, Fri Jul 20 2018 23:26:35 GMT+0800 (CST), choiceRTT, 60, undefined, undefined, undefined, undefined, undefined, undefined, 1.8888, 0.125, b, 1, 0, 40, 18, 1, 39, 1.8888, 0.125, b, 314, 001, Fri Jul 20 2018 23:26:35 GMT+0800 (CST), choiceRTT, 60
, 0, , -0.1175, 0.01375, 1, 0, 0, 0.5, my.targImage, undefined, undefined, undefined, undefined, undefined, undefined, 1.8888, 0.125, b, 314, 001, Fri Jul 20 2018 23:26:35 GMT+0800 (CST), choiceRTT, 60, undefined, undefined, undefined, undefined, undefined, undefined, 1.8888, 0.125, b, 1, 0, 40, 18, 1, 39, 1.8888, 0.125, b, 314, 001, Fri Jul 20 2018 23:26:35 GMT+0800 (CST), choiceRTT, 60
, 0, , -0.285, 0.02, 1, 0, 0, 0.6160000000000139, my.targImage, undefined, undefined, undefined, undefined, undefined, undefined, 1.8888, 0.125, b, 314, 001, Fri Jul 20 2018 23:26:35 GMT+0800 (CST), choiceRTT, 60, undefined, undefined, undefined, undefined, undefined, undefined, 1.8888, 0.125, b, 1, 0, 40, 18, 1, 39, 1.8888, 0.125, b, 314, 001, Fri Jul 20 2018 23:26:35 GMT+0800 (CST), choiceRTT, 60
, 0, , 0.355, 0, 1, 0, 0, 0.6340000000000003, my.targImage, undefined, undefined, undefined, undefined, undefined, undefined, 1.8888, 0.125, b, 314, 001, Fri Jul 20 2018 23:26:35 GMT+0800 (CST), choiceRTT, 60, undefined, undefined, undefined, undefined, undefined, undefined, 1.8888, 0.125, b, 1, 0, 40, 18, 1, 39, 1.8888, 0.125, b, 314, 001, Fri Jul 20 2018 23:26:35 GMT+0800 (CST), choiceRTT, 60
, 0, , 0.3725, -0.00875, 1, 0, 0, 2.3999999999999915, my.targImage, undefined, undefined, undefined, undefined, undefined, undefined, 1.8888, 0.125, b, 314, 001, Fri Jul 20 2018 23:26:35 GMT+0800 (CST), choiceRTT, 60, undefined, undefined, undefined, undefined, undefined, undefined, 1.8888, 0.125, b, 1, 0, 40, 18, 1, 39, 1.8888, 0.125, b, 314, 001, Fri Jul 20 2018 23:26:35 GMT+0800 (CST), choiceRTT, 60
, 0, , -0.1075, 0.00125, 1, 0, 0, 0.4339999999999975, my.targImage, undefined, undefined, undefined, undefined, undefined, undefined, 1.8888, 0.125, b, 314, 001, Fri Jul 20 2018 23:26:35 GMT+0800 (CST), choiceRTT, 60, undefined, undefined, undefined, undefined, undefined, undefined, 1.8888, 0.125, b, 1, 0, 40, 18, 1, 39, 1.8888, 0.125, b, 314, 001, Fri Jul 20 2018 23:26:35 GMT+0800 (CST), choiceRTT, 60
, 0, , 0.095, -0.005, 1, 0, 0, 0.5829999999999984, my.targImage, undefined, undefined, undefined, undefined, undefined, undefined, 1.8888, 0.125, b, 314, 001, Fri Jul 20 2018 23:26:35 GMT+0800 (CST), choiceRTT, 60, undefined, undefined, undefined, undefined, undefined, undefined, 1.8888, 0.125, b, 1, 0, 40, 18, 1, 39, 1.8888, 0.125, b, 314, 001, Fri Jul 20 2018 23:26:35 GMT+0800 (CST), choiceRTT, 60
, 0, , 0.29125, -0.01875, 1, 0, 0, 0.5999999999999943, my.targImage, undefined, undefined, undefined, undefined, undefined, undefined, 1.8888, 0.125, b, 314, 001, Fri Jul 20 2018 23:26:35 GMT+0800 (CST), choiceRTT, 60, undefined, undefined, undefined, undefined, undefined, undefined, 1.8888, 0.125, b, 1, 0, 40, 18, 1, 39, 1.8888, 0.125, b, 314, 001, Fri Jul 20 2018 23:26:35 GMT+0800 (CST), choiceRTT, 60
, 0, , 0.05625, -0.01375, 1, 0, 0, 0.46699999999998454, my.targImage, undefined, undefined, undefined, undefined, undefined, undefined, 1.8888, 0.125, b, 314, 001, Fri Jul 20 2018 23:26:35 GMT+0800 (CST), choiceRTT, 60, undefined, undefined, undefined, undefined, undefined, undefined, 1.8888, 0.125, b, 1, 0, 40, 18, 1, 39, 1.8888, 0.125, b, 314, 001, Fri Jul 20 2018 23:26:35 GMT+0800 (CST), choiceRTT, 60
, 0, , 0.10125, -0.0175, 1, 0, 0, 1.1670000000000016, my.targImage, undefined, undefined, undefined, undefined, undefined, undefined, 1.8888, 0.125, b, 314, 001, Fri Jul 20 2018 23:26:35 GMT+0800 (CST), choiceRTT, 60, undefined, undefined, undefined, undefined, undefined, undefined, 1.8888, 0.125, b, 1, 0, 40, 18, 1, 39, 1.8888, 0.125, b, 314, 001, Fri Jul 20 2018 23:26:35 GMT+0800 (CST), choiceRTT, 60
, 0, , -0.0825, -0.0175, 1, 0, 0, 1.266999999999996, my.targImage, undefined, undefined, undefined, undefined, undefined, undefined, 1.8888, 0.125, b, 314, 001, Fri Jul 20 2018 23:26:35 GMT+0800 (CST), choiceRTT, 60, undefined, undefined, undefined, undefined, undefined, undefined, 1.8888, 0.125, b, 1, 0, 40, 18, 1, 39, 1.8888, 0.125, b, 314, 001, Fri Jul 20 2018 23:26:35 GMT+0800 (CST), choiceRTT, 60
, 0, , -0.29125, -0.0125, 1, 0, 0, 0.9509999999999934, my.targImage, undefined, undefined, undefined, undefined, undefined, undefined, 1.8888, 0.125, b, 314, 001, Fri Jul 20 2018 23:26:35 GMT+0800 (CST), choiceRTT, 60, undefined, undefined, undefined, undefined, undefined, undefined, 1.8888, 0.125, b, 1, 0, 40, 18, 1, 39, 1.8888, 0.125, b, 314, 001, Fri Jul 20 2018 23:26:35 GMT+0800 (CST), choiceRTT, 60
, 0, , 0.11125, -0.04875, 1, 0, 0, 0.5, my.targImage, undefined, undefined, undefined, undefined, undefined, undefined, 1.8888, 0.125, b, 314, 001, Fri Jul 20 2018 23:26:35 GMT+0800 (CST), choiceRTT, 60, undefined, undefined, undefined, undefined, undefined, undefined, 1.8888, 0.125, b, 1, 0, 40, 18, 1, 39, 1.8888, 0.125, b, 314, 001, Fri Jul 20 2018 23:26:35 GMT+0800 (CST), choiceRTT, 60
, 0, , -0.07875, 0.00125, 1, 0, 0, 0.5840000000000032, my.targImage, undefined, undefined, undefined, undefined, undefined, undefined, 1.8888, 0.125, b, 314, 001, Fri Jul 20 2018 23:26:35 GMT+0800 (CST), choiceRTT, 60, undefined, undefined, undefined, undefined, undefined, undefined, 1.8888, 0.125, b, 1, 0, 40, 18, 1, 39, 1.8888, 0.125, b, 314, 001, Fri Jul 20 2018 23:26:35 GMT+0800 (CST), choiceRTT, 60
, 0, , 0.15375, -0.02375, 1, 0, 0, 0.45000000000001705, my.targImage, undefined, undefined, undefined, undefined, undefined, undefined, 1.8888, 0.125, b, 314, 001, Fri Jul 20 2018 23:26:35 GMT+0800 (CST), choiceRTT, 60, undefined, undefined, undefined, undefined, undefined, undefined, 1.8888, 0.125, b, 1, 0, 40, 18, 1, 39, 1.8888, 0.125, b, 314, 001, Fri Jul 20 2018 23:26:35 GMT+0800 (CST), choiceRTT, 60
