my.response.keys, my.response.corr, my.response.rt, my.mouseResp.x, my.mouseResp.y, my.mouseResp.leftButton, my.mouseResp.midButton, my.mouseResp.rightButton, my.mouseResp.RT, my.mouseResp.clicked_name, my.practiceTrials.thisRepN, my.practiceTrials.thisTrialN, my.practiceTrials.thisN, my.practiceTrials.thisIndex, my.practiceTrials.ran, my.practiceTrials.order, isi, xPos, corrAns, participant, session, date, expName, frameRate, my.practiceTrials.thisRepN, my.practiceTrials.thisTrialN, my.practiceTrials.thisN, my.practiceTrials.thisIndex, my.practiceTrials.ran, my.practiceTrials.order, isi, xPos, corrAns, my.mainTrials.thisRepN, my.mainTrials.thisTrialN, my.mainTrials.thisN, my.mainTrials.thisIndex, my.mainTrials.ran, my.mainTrials.order, isi, xPos, corrAns, participant, session, date, expName, frameRate
, 0, , 0.3, -0.027777777777777776, 1, 0, 0, 0.5390000000000006, my.targImage, 1, 0, 8, 1, 1, 7, 1, -0.125, v, , 001, Fri Jul 20 2018 12:56:36 GMT+0100 (GMT+01:00), choiceRTT, 60, 1, 0, 8, 1, 1, 7, 1, -0.125, v, undefined, undefined, undefined, undefined, undefined, undefined, 1, -0.125, v, , 001, Fri Jul 20 2018 12:56:36 GMT+0100 (GMT+01:00), choiceRTT, 60
, 0, , -0.45, -0.08888888888888889, 1, 0, 0, 0.46799999999999997, my.targImage, 1, 0, 8, 1, 1, 7, 1, -0.125, v, , 001, Fri Jul 20 2018 12:56:36 GMT+0100 (GMT+01:00), choiceRTT, 60, 1, 0, 8, 1, 1, 7, 1, -0.125, v, undefined, undefined, undefined, undefined, undefined, undefined, 1, -0.125, v, , 001, Fri Jul 20 2018 12:56:36 GMT+0100 (GMT+01:00), choiceRTT, 60
, 0, , -0.08611111111111111, -0.027777777777777776, 1, 0, 0, 0.4189999999999987, my.targImage, 1, 0, 8, 1, 1, 7, 1, -0.125, v, , 001, Fri Jul 20 2018 12:56:36 GMT+0100 (GMT+01:00), choiceRTT, 60, 1, 0, 8, 1, 1, 7, 1, -0.125, v, undefined, undefined, undefined, undefined, undefined, undefined, 1, -0.125, v, , 001, Fri Jul 20 2018 12:56:36 GMT+0100 (GMT+01:00), choiceRTT, 60
, 0, , 0.1111111111111111, -0.022222222222222223, 1, 0, 0, 0.43299999999999983, my.targImage, 1, 0, 8, 1, 1, 7, 1, -0.125, v, , 001, Fri Jul 20 2018 12:56:36 GMT+0100 (GMT+01:00), choiceRTT, 60, 1, 0, 8, 1, 1, 7, 1, -0.125, v, undefined, undefined, undefined, undefined, undefined, undefined, 1, -0.125, v, , 001, Fri Jul 20 2018 12:56:36 GMT+0100 (GMT+01:00), choiceRTT, 60
, 0, , 0.3861111111111111, -0.005555555555555556, 1, 0, 0, 2.0679999999999996, my.targImage, 1, 0, 8, 1, 1, 7, 1, -0.125, v, , 001, Fri Jul 20 2018 12:56:36 GMT+0100 (GMT+01:00), choiceRTT, 60, 1, 0, 8, 1, 1, 7, 1, -0.125, v, undefined, undefined, undefined, undefined, undefined, undefined, 1, -0.125, v, , 001, Fri Jul 20 2018 12:56:36 GMT+0100 (GMT+01:00), choiceRTT, 60
, 0, , -0.39444444444444443, -0.07222222222222222, 1, 0, 0, 2.8900000000000006, my.targImage, 1, 0, 8, 1, 1, 7, 1, -0.125, v, , 001, Fri Jul 20 2018 12:56:36 GMT+0100 (GMT+01:00), choiceRTT, 60, 1, 0, 8, 1, 1, 7, 1, -0.125, v, undefined, undefined, undefined, undefined, undefined, undefined, 1, -0.125, v, , 001, Fri Jul 20 2018 12:56:36 GMT+0100 (GMT+01:00), choiceRTT, 60
, 0, , 0.1638888888888889, -0.005555555555555556, 1, 0, 0, 2.397000000000002, my.targImage, 1, 0, 8, 1, 1, 7, 1, -0.125, v, , 001, Fri Jul 20 2018 12:56:36 GMT+0100 (GMT+01:00), choiceRTT, 60, 1, 0, 8, 1, 1, 7, 1, -0.125, v, undefined, undefined, undefined, undefined, undefined, undefined, 1, -0.125, v, , 001, Fri Jul 20 2018 12:56:36 GMT+0100 (GMT+01:00), choiceRTT, 60
, 0, , -0.1388888888888889, -0.008333333333333333, 1, 0, 0, 0.9190000000000005, my.targImage, 1, 0, 8, 1, 1, 7, 1, -0.125, v, , 001, Fri Jul 20 2018 12:56:36 GMT+0100 (GMT+01:00), choiceRTT, 60, 1, 0, 8, 1, 1, 7, 1, -0.125, v, undefined, undefined, undefined, undefined, undefined, undefined, 1, -0.125, v, , 001, Fri Jul 20 2018 12:56:36 GMT+0100 (GMT+01:00), choiceRTT, 60
, 0, , 0.11388888888888889, -0.03333333333333333, 1, 0, 0, 6.131, my.targImage, undefined, undefined, undefined, undefined, undefined, undefined, 2.3332, 0.375, n, , 001, Fri Jul 20 2018 12:56:36 GMT+0100 (GMT+01:00), choiceRTT, 60, undefined, undefined, undefined, undefined, undefined, undefined, 2.3332, 0.375, n, 1, 0, 40, 27, 1, 39, 2.3332, 0.375, n, , 001, Fri Jul 20 2018 12:56:36 GMT+0100 (GMT+01:00), choiceRTT, 60
, 0, , -0.125, -0.04722222222222222, 1, 0, 0, 1.1909999999999954, my.targImage, undefined, undefined, undefined, undefined, undefined, undefined, 2.3332, 0.375, n, , 001, Fri Jul 20 2018 12:56:36 GMT+0100 (GMT+01:00), choiceRTT, 60, undefined, undefined, undefined, undefined, undefined, undefined, 2.3332, 0.375, n, 1, 0, 40, 27, 1, 39, 2.3332, 0.375, n, , 001, Fri Jul 20 2018 12:56:36 GMT+0100 (GMT+01:00), choiceRTT, 60
, 0, , 0.1527777777777778, -0.06388888888888888, 1, 0, 0, 52.834999999999994, my.targImage, undefined, undefined, undefined, undefined, undefined, undefined, 2.3332, 0.375, n, , 001, Fri Jul 20 2018 12:56:36 GMT+0100 (GMT+01:00), choiceRTT, 60, undefined, undefined, undefined, undefined, undefined, undefined, 2.3332, 0.375, n, 1, 0, 40, 27, 1, 39, 2.3332, 0.375, n, , 001, Fri Jul 20 2018 12:56:36 GMT+0100 (GMT+01:00), choiceRTT, 60
, 0, , -0.3611111111111111, -0.06666666666666667, 1, 0, 0, 0.49900000000000944, my.targImage, undefined, undefined, undefined, undefined, undefined, undefined, 2.3332, 0.375, n, , 001, Fri Jul 20 2018 12:56:36 GMT+0100 (GMT+01:00), choiceRTT, 60, undefined, undefined, undefined, undefined, undefined, undefined, 2.3332, 0.375, n, 1, 0, 40, 27, 1, 39, 2.3332, 0.375, n, , 001, Fri Jul 20 2018 12:56:36 GMT+0100 (GMT+01:00), choiceRTT, 60
, 0, , -0.13333333333333333, -0.027777777777777776, 1, 0, 0, 0.938999999999993, my.targImage, undefined, undefined, undefined, undefined, undefined, undefined, 2.3332, 0.375, n, , 001, Fri Jul 20 2018 12:56:36 GMT+0100 (GMT+01:00), choiceRTT, 60, undefined, undefined, undefined, undefined, undefined, undefined, 2.3332, 0.375, n, 1, 0, 40, 27, 1, 39, 2.3332, 0.375, n, , 001, Fri Jul 20 2018 12:56:36 GMT+0100 (GMT+01:00), choiceRTT, 60
, 0, , 0.38055555555555554, -0.022222222222222223, 1, 0, 0, 0.3990000000000009, my.targImage, undefined, undefined, undefined, undefined, undefined, undefined, 2.3332, 0.375, n, , 001, Fri Jul 20 2018 12:56:36 GMT+0100 (GMT+01:00), choiceRTT, 60, undefined, undefined, undefined, undefined, undefined, undefined, 2.3332, 0.375, n, 1, 0, 40, 27, 1, 39, 2.3332, 0.375, n, , 001, Fri Jul 20 2018 12:56:36 GMT+0100 (GMT+01:00), choiceRTT, 60
, 0, , -0.36666666666666664, -0.022222222222222223, 1, 0, 0, 0.4519999999999982, my.targImage, undefined, undefined, undefined, undefined, undefined, undefined, 2.3332, 0.375, n, , 001, Fri Jul 20 2018 12:56:36 GMT+0100 (GMT+01:00), choiceRTT, 60, undefined, undefined, undefined, undefined, undefined, undefined, 2.3332, 0.375, n, 1, 0, 40, 27, 1, 39, 2.3332, 0.375, n, , 001, Fri Jul 20 2018 12:56:36 GMT+0100 (GMT+01:00), choiceRTT, 60
, 0, , -0.4111111111111111, -0.030555555555555555, 1, 0, 0, 0.6200000000000045, my.targImage, undefined, undefined, undefined, undefined, undefined, undefined, 2.3332, 0.375, n, , 001, Fri Jul 20 2018 12:56:36 GMT+0100 (GMT+01:00), choiceRTT, 60, undefined, undefined, undefined, undefined, undefined, undefined, 2.3332, 0.375, n, 1, 0, 40, 27, 1, 39, 2.3332, 0.375, n, , 001, Fri Jul 20 2018 12:56:36 GMT+0100 (GMT+01:00), choiceRTT, 60
, 0, , -0.35, 0.013888888888888888, 1, 0, 0, 12.930000000000007, my.targImage, undefined, undefined, undefined, undefined, undefined, undefined, 2.3332, 0.375, n, , 001, Fri Jul 20 2018 12:56:36 GMT+0100 (GMT+01:00), choiceRTT, 60, undefined, undefined, undefined, undefined, undefined, undefined, 2.3332, 0.375, n, 1, 0, 40, 27, 1, 39, 2.3332, 0.375, n, , 001, Fri Jul 20 2018 12:56:36 GMT+0100 (GMT+01:00), choiceRTT, 60
, 0, , -0.1, 0.03611111111111111, 1, 0, 0, 1.0549999999999926, my.targImage, undefined, undefined, undefined, undefined, undefined, undefined, 2.3332, 0.375, n, , 001, Fri Jul 20 2018 12:56:36 GMT+0100 (GMT+01:00), choiceRTT, 60, undefined, undefined, undefined, undefined, undefined, undefined, 2.3332, 0.375, n, 1, 0, 40, 27, 1, 39, 2.3332, 0.375, n, , 001, Fri Jul 20 2018 12:56:36 GMT+0100 (GMT+01:00), choiceRTT, 60
, 0, , -0.39166666666666666, -0.008333333333333333, 1, 0, 0, 0.603999999999985, my.targImage, undefined, undefined, undefined, undefined, undefined, undefined, 2.3332, 0.375, n, , 001, Fri Jul 20 2018 12:56:36 GMT+0100 (GMT+01:00), choiceRTT, 60, undefined, undefined, undefined, undefined, undefined, undefined, 2.3332, 0.375, n, 1, 0, 40, 27, 1, 39, 2.3332, 0.375, n, , 001, Fri Jul 20 2018 12:56:36 GMT+0100 (GMT+01:00), choiceRTT, 60
, 0, , -0.06388888888888888, 0.041666666666666664, 1, 0, 0, 1.4770000000000039, my.targImage, undefined, undefined, undefined, undefined, undefined, undefined, 2.3332, 0.375, n, , 001, Fri Jul 20 2018 12:56:36 GMT+0100 (GMT+01:00), choiceRTT, 60, undefined, undefined, undefined, undefined, undefined, undefined, 2.3332, 0.375, n, 1, 0, 40, 27, 1, 39, 2.3332, 0.375, n, , 001, Fri Jul 20 2018 12:56:36 GMT+0100 (GMT+01:00), choiceRTT, 60
, 0, , 0.3416666666666667, -0.03611111111111111, 1, 0, 0, 0.5169999999999959, my.targImage, undefined, undefined, undefined, undefined, undefined, undefined, 2.3332, 0.375, n, , 001, Fri Jul 20 2018 12:56:36 GMT+0100 (GMT+01:00), choiceRTT, 60, undefined, undefined, undefined, undefined, undefined, undefined, 2.3332, 0.375, n, 1, 0, 40, 27, 1, 39, 2.3332, 0.375, n, , 001, Fri Jul 20 2018 12:56:36 GMT+0100 (GMT+01:00), choiceRTT, 60
, 0, , 0.38055555555555554, 0.011111111111111112, 1, 0, 0, 0.46699999999998454, my.targImage, undefined, undefined, undefined, undefined, undefined, undefined, 2.3332, 0.375, n, , 001, Fri Jul 20 2018 12:56:36 GMT+0100 (GMT+01:00), choiceRTT, 60, undefined, undefined, undefined, undefined, undefined, undefined, 2.3332, 0.375, n, 1, 0, 40, 27, 1, 39, 2.3332, 0.375, n, , 001, Fri Jul 20 2018 12:56:36 GMT+0100 (GMT+01:00), choiceRTT, 60
, 0, , -0.2111111111111111, 0.011111111111111112, 1, 0, 0, 0.5160000000000196, my.targImage, undefined, undefined, undefined, undefined, undefined, undefined, 2.3332, 0.375, n, , 001, Fri Jul 20 2018 12:56:36 GMT+0100 (GMT+01:00), choiceRTT, 60, undefined, undefined, undefined, undefined, undefined, undefined, 2.3332, 0.375, n, 1, 0, 40, 27, 1, 39, 2.3332, 0.375, n, , 001, Fri Jul 20 2018 12:56:36 GMT+0100 (GMT+01:00), choiceRTT, 60
, 0, , -0.07777777777777778, 0.019444444444444445, 1, 0, 0, 0.7560000000000002, my.targImage, undefined, undefined, undefined, undefined, undefined, undefined, 2.3332, 0.375, n, , 001, Fri Jul 20 2018 12:56:36 GMT+0100 (GMT+01:00), choiceRTT, 60, undefined, undefined, undefined, undefined, undefined, undefined, 2.3332, 0.375, n, 1, 0, 40, 27, 1, 39, 2.3332, 0.375, n, , 001, Fri Jul 20 2018 12:56:36 GMT+0100 (GMT+01:00), choiceRTT, 60
, 0, , 0.17777777777777778, -0.005555555555555556, 1, 0, 0, 0.40100000000001046, my.targImage, undefined, undefined, undefined, undefined, undefined, undefined, 2.3332, 0.375, n, , 001, Fri Jul 20 2018 12:56:36 GMT+0100 (GMT+01:00), choiceRTT, 60, undefined, undefined, undefined, undefined, undefined, undefined, 2.3332, 0.375, n, 1, 0, 40, 27, 1, 39, 2.3332, 0.375, n, , 001, Fri Jul 20 2018 12:56:36 GMT+0100 (GMT+01:00), choiceRTT, 60
, 0, , -0.1111111111111111, -0.016666666666666666, 1, 0, 0, 0.4340000000000259, my.targImage, undefined, undefined, undefined, undefined, undefined, undefined, 2.3332, 0.375, n, , 001, Fri Jul 20 2018 12:56:36 GMT+0100 (GMT+01:00), choiceRTT, 60, undefined, undefined, undefined, undefined, undefined, undefined, 2.3332, 0.375, n, 1, 0, 40, 27, 1, 39, 2.3332, 0.375, n, , 001, Fri Jul 20 2018 12:56:36 GMT+0100 (GMT+01:00), choiceRTT, 60
, 0, , 0.09444444444444444, -0.027777777777777776, 1, 0, 0, 0.49100000000001387, my.targImage, undefined, undefined, undefined, undefined, undefined, undefined, 2.3332, 0.375, n, , 001, Fri Jul 20 2018 12:56:36 GMT+0100 (GMT+01:00), choiceRTT, 60, undefined, undefined, undefined, undefined, undefined, undefined, 2.3332, 0.375, n, 1, 0, 40, 27, 1, 39, 2.3332, 0.375, n, , 001, Fri Jul 20 2018 12:56:36 GMT+0100 (GMT+01:00), choiceRTT, 60
, 0, , 0.14166666666666666, -0.06388888888888888, 1, 0, 0, 0.5879999999999939, my.targImage, undefined, undefined, undefined, undefined, undefined, undefined, 2.3332, 0.375, n, , 001, Fri Jul 20 2018 12:56:36 GMT+0100 (GMT+01:00), choiceRTT, 60, undefined, undefined, undefined, undefined, undefined, undefined, 2.3332, 0.375, n, 1, 0, 40, 27, 1, 39, 2.3332, 0.375, n, , 001, Fri Jul 20 2018 12:56:36 GMT+0100 (GMT+01:00), choiceRTT, 60
, 0, , 0.33055555555555555, -0.058333333333333334, 1, 0, 0, 0.5190000000000055, my.targImage, undefined, undefined, undefined, undefined, undefined, undefined, 2.3332, 0.375, n, , 001, Fri Jul 20 2018 12:56:36 GMT+0100 (GMT+01:00), choiceRTT, 60, undefined, undefined, undefined, undefined, undefined, undefined, 2.3332, 0.375, n, 1, 0, 40, 27, 1, 39, 2.3332, 0.375, n, , 001, Fri Jul 20 2018 12:56:36 GMT+0100 (GMT+01:00), choiceRTT, 60
, 0, , 0.4027777777777778, 0.008333333333333333, 1, 0, 0, 0.7199999999999989, my.targImage, undefined, undefined, undefined, undefined, undefined, undefined, 2.3332, 0.375, n, , 001, Fri Jul 20 2018 12:56:36 GMT+0100 (GMT+01:00), choiceRTT, 60, undefined, undefined, undefined, undefined, undefined, undefined, 2.3332, 0.375, n, 1, 0, 40, 27, 1, 39, 2.3332, 0.375, n, , 001, Fri Jul 20 2018 12:56:36 GMT+0100 (GMT+01:00), choiceRTT, 60
, 0, , 0.13333333333333333, -0.041666666666666664, 1, 0, 0, 0.4339999999999975, my.targImage, undefined, undefined, undefined, undefined, undefined, undefined, 2.3332, 0.375, n, , 001, Fri Jul 20 2018 12:56:36 GMT+0100 (GMT+01:00), choiceRTT, 60, undefined, undefined, undefined, undefined, undefined, undefined, 2.3332, 0.375, n, 1, 0, 40, 27, 1, 39, 2.3332, 0.375, n, , 001, Fri Jul 20 2018 12:56:36 GMT+0100 (GMT+01:00), choiceRTT, 60
, 0, , 0.3194444444444444, 0.025, 1, 0, 0, 1.475999999999999, my.targImage, undefined, undefined, undefined, undefined, undefined, undefined, 2.3332, 0.375, n, , 001, Fri Jul 20 2018 12:56:36 GMT+0100 (GMT+01:00), choiceRTT, 60, undefined, undefined, undefined, undefined, undefined, undefined, 2.3332, 0.375, n, 1, 0, 40, 27, 1, 39, 2.3332, 0.375, n, , 001, Fri Jul 20 2018 12:56:36 GMT+0100 (GMT+01:00), choiceRTT, 60
, 0, , -0.1, -0.041666666666666664, 1, 0, 0, 1.929000000000002, my.targImage, undefined, undefined, undefined, undefined, undefined, undefined, 2.3332, 0.375, n, , 001, Fri Jul 20 2018 12:56:36 GMT+0100 (GMT+01:00), choiceRTT, 60, undefined, undefined, undefined, undefined, undefined, undefined, 2.3332, 0.375, n, 1, 0, 40, 27, 1, 39, 2.3332, 0.375, n, , 001, Fri Jul 20 2018 12:56:36 GMT+0100 (GMT+01:00), choiceRTT, 60
, 0, , 0.15833333333333333, -0.03611111111111111, 1, 0, 0, 0.43300000000002115, my.targImage, undefined, undefined, undefined, undefined, undefined, undefined, 2.3332, 0.375, n, , 001, Fri Jul 20 2018 12:56:36 GMT+0100 (GMT+01:00), choiceRTT, 60, undefined, undefined, undefined, undefined, undefined, undefined, 2.3332, 0.375, n, 1, 0, 40, 27, 1, 39, 2.3332, 0.375, n, , 001, Fri Jul 20 2018 12:56:36 GMT+0100 (GMT+01:00), choiceRTT, 60
, 0, , -0.46944444444444444, 0, 1, 0, 0, 0.5849999999999795, my.targImage, undefined, undefined, undefined, undefined, undefined, undefined, 2.3332, 0.375, n, , 001, Fri Jul 20 2018 12:56:36 GMT+0100 (GMT+01:00), choiceRTT, 60, undefined, undefined, undefined, undefined, undefined, undefined, 2.3332, 0.375, n, 1, 0, 40, 27, 1, 39, 2.3332, 0.375, n, , 001, Fri Jul 20 2018 12:56:36 GMT+0100 (GMT+01:00), choiceRTT, 60
, 0, , 0.175, -0.013888888888888888, 1, 0, 0, 0.45100000000002183, my.targImage, undefined, undefined, undefined, undefined, undefined, undefined, 2.3332, 0.375, n, , 001, Fri Jul 20 2018 12:56:36 GMT+0100 (GMT+01:00), choiceRTT, 60, undefined, undefined, undefined, undefined, undefined, undefined, 2.3332, 0.375, n, 1, 0, 40, 27, 1, 39, 2.3332, 0.375, n, , 001, Fri Jul 20 2018 12:56:36 GMT+0100 (GMT+01:00), choiceRTT, 60
, 0, , 0.12777777777777777, -0.05555555555555555, 1, 0, 0, 0.804000000000002, my.targImage, undefined, undefined, undefined, undefined, undefined, undefined, 2.3332, 0.375, n, , 001, Fri Jul 20 2018 12:56:36 GMT+0100 (GMT+01:00), choiceRTT, 60, undefined, undefined, undefined, undefined, undefined, undefined, 2.3332, 0.375, n, 1, 0, 40, 27, 1, 39, 2.3332, 0.375, n, , 001, Fri Jul 20 2018 12:56:36 GMT+0100 (GMT+01:00), choiceRTT, 60
, 0, , -0.41388888888888886, -0.05277777777777778, 1, 0, 0, 1.1389999999999816, my.targImage, undefined, undefined, undefined, undefined, undefined, undefined, 2.3332, 0.375, n, , 001, Fri Jul 20 2018 12:56:36 GMT+0100 (GMT+01:00), choiceRTT, 60, undefined, undefined, undefined, undefined, undefined, undefined, 2.3332, 0.375, n, 1, 0, 40, 27, 1, 39, 2.3332, 0.375, n, , 001, Fri Jul 20 2018 12:56:36 GMT+0100 (GMT+01:00), choiceRTT, 60
, 0, , 0.08611111111111111, -0.027777777777777776, 1, 0, 0, 0.7379999999999995, my.targImage, undefined, undefined, undefined, undefined, undefined, undefined, 2.3332, 0.375, n, , 001, Fri Jul 20 2018 12:56:36 GMT+0100 (GMT+01:00), choiceRTT, 60, undefined, undefined, undefined, undefined, undefined, undefined, 2.3332, 0.375, n, 1, 0, 40, 27, 1, 39, 2.3332, 0.375, n, , 001, Fri Jul 20 2018 12:56:36 GMT+0100 (GMT+01:00), choiceRTT, 60
, 0, , 0.375, -0.011111111111111112, 1, 0, 0, 0.4199999999999875, my.targImage, undefined, undefined, undefined, undefined, undefined, undefined, 2.3332, 0.375, n, , 001, Fri Jul 20 2018 12:56:36 GMT+0100 (GMT+01:00), choiceRTT, 60, undefined, undefined, undefined, undefined, undefined, undefined, 2.3332, 0.375, n, 1, 0, 40, 27, 1, 39, 2.3332, 0.375, n, , 001, Fri Jul 20 2018 12:56:36 GMT+0100 (GMT+01:00), choiceRTT, 60
, 0, , -0.1527777777777778, -0.008333333333333333, 1, 0, 0, 0.4509999999999934, my.targImage, undefined, undefined, undefined, undefined, undefined, undefined, 2.3332, 0.375, n, , 001, Fri Jul 20 2018 12:56:36 GMT+0100 (GMT+01:00), choiceRTT, 60, undefined, undefined, undefined, undefined, undefined, undefined, 2.3332, 0.375, n, 1, 0, 40, 27, 1, 39, 2.3332, 0.375, n, , 001, Fri Jul 20 2018 12:56:36 GMT+0100 (GMT+01:00), choiceRTT, 60
, 0, , 0.4111111111111111, -0.016666666666666666, 1, 0, 0, 0.8019999999999925, my.targImage, undefined, undefined, undefined, undefined, undefined, undefined, 2.3332, 0.375, n, , 001, Fri Jul 20 2018 12:56:36 GMT+0100 (GMT+01:00), choiceRTT, 60, undefined, undefined, undefined, undefined, undefined, undefined, 2.3332, 0.375, n, 1, 0, 40, 27, 1, 39, 2.3332, 0.375, n, , 001, Fri Jul 20 2018 12:56:36 GMT+0100 (GMT+01:00), choiceRTT, 60
, 0, , -0.33611111111111114, -0.041666666666666664, 1, 0, 0, 0.4340000000000259, my.targImage, undefined, undefined, undefined, undefined, undefined, undefined, 2.3332, 0.375, n, , 001, Fri Jul 20 2018 12:56:36 GMT+0100 (GMT+01:00), choiceRTT, 60, undefined, undefined, undefined, undefined, undefined, undefined, 2.3332, 0.375, n, 1, 0, 40, 27, 1, 39, 2.3332, 0.375, n, , 001, Fri Jul 20 2018 12:56:36 GMT+0100 (GMT+01:00), choiceRTT, 60
, 0, , -0.125, -0.05555555555555555, 1, 0, 0, 0.4679999999999893, my.targImage, undefined, undefined, undefined, undefined, undefined, undefined, 2.3332, 0.375, n, , 001, Fri Jul 20 2018 12:56:36 GMT+0100 (GMT+01:00), choiceRTT, 60, undefined, undefined, undefined, undefined, undefined, undefined, 2.3332, 0.375, n, 1, 0, 40, 27, 1, 39, 2.3332, 0.375, n, , 001, Fri Jul 20 2018 12:56:36 GMT+0100 (GMT+01:00), choiceRTT, 60
, 0, , -0.3527777777777778, -0.06388888888888888, 1, 0, 0, 1.0060000000000002, my.targImage, undefined, undefined, undefined, undefined, undefined, undefined, 2.3332, 0.375, n, , 001, Fri Jul 20 2018 12:56:36 GMT+0100 (GMT+01:00), choiceRTT, 60, undefined, undefined, undefined, undefined, undefined, undefined, 2.3332, 0.375, n, 1, 0, 40, 27, 1, 39, 2.3332, 0.375, n, , 001, Fri Jul 20 2018 12:56:36 GMT+0100 (GMT+01:00), choiceRTT, 60
, 0, , 0.4583333333333333, -0.011111111111111112, 1, 0, 0, 0.4339999999999975, my.targImage, undefined, undefined, undefined, undefined, undefined, undefined, 2.3332, 0.375, n, , 001, Fri Jul 20 2018 12:56:36 GMT+0100 (GMT+01:00), choiceRTT, 60, undefined, undefined, undefined, undefined, undefined, undefined, 2.3332, 0.375, n, 1, 0, 40, 27, 1, 39, 2.3332, 0.375, n, , 001, Fri Jul 20 2018 12:56:36 GMT+0100 (GMT+01:00), choiceRTT, 60
, 0, , -0.3055555555555556, -0.013888888888888888, 1, 0, 0, 0.4849999999999852, my.targImage, undefined, undefined, undefined, undefined, undefined, undefined, 2.3332, 0.375, n, , 001, Fri Jul 20 2018 12:56:36 GMT+0100 (GMT+01:00), choiceRTT, 60, undefined, undefined, undefined, undefined, undefined, undefined, 2.3332, 0.375, n, 1, 0, 40, 27, 1, 39, 2.3332, 0.375, n, , 001, Fri Jul 20 2018 12:56:36 GMT+0100 (GMT+01:00), choiceRTT, 60
, 0, , 0.4027777777777778, -0.025, 1, 0, 0, 0.6699999999999875, my.targImage, undefined, undefined, undefined, undefined, undefined, undefined, 2.3332, 0.375, n, , 001, Fri Jul 20 2018 12:56:36 GMT+0100 (GMT+01:00), choiceRTT, 60, undefined, undefined, undefined, undefined, undefined, undefined, 2.3332, 0.375, n, 1, 0, 40, 27, 1, 39, 2.3332, 0.375, n, , 001, Fri Jul 20 2018 12:56:36 GMT+0100 (GMT+01:00), choiceRTT, 60
