participant,session,date,expName,psychopyVersion,OS,frameRate,keyResp.keys,keyResp.corr,mouseResp.x,mouseResp.y,mouseResp.leftButton,mouseResp.midButton,mouseResp.rightButton,mouseResp.time,mouseResp.clicked_name,correctMouseResp,trialRespTimes,moveOnKeys.keys,moveOnKeys.rt,moveOnKeys.duration,PracticeLoop.thisRepN,PracticeLoop.thisTrialN,PracticeLoop.thisN,PracticeLoop.thisIndex,PracticeLoop.ran,onsetTime,thisImage,key_resp.keys,mouse.x,mouse.y,mouse.leftButton,mouse.midButton,mouse.rightButton,ExptLoop.thisRepN,ExptLoop.thisTrialN,ExptLoop.thisN,ExptLoop.thisIndex,ExptLoop.ran
A,001,2023-12-06_12h23.52.050,choiceRTT,2023.1.3,Win32,60.18657839,,,,,,,,,,,,,,,,,,,,,,,,,,,,,,,,
A,001,2023-12-06_12h23.52.050,choiceRTT,2023.1.3,Win32,60.18657839,,0,-0.215555556,-0.253333333,1,0,0,3.0065,cross_button,1,1.9065,space,12.6657,,0,0,0,0,1,1.1,images/target_cross.jpg,,,,,,,,,,,
A,001,2023-12-06_12h23.52.050,choiceRTT,2023.1.3,Win32,60.18657839,,0,-0.04,-0.23,1,0,0,2.2384,square_button,1,0.9384,space,3.1108,,0,1,1,8,1,1.3,images/target_square.jpg,,,,,,,,,,,
A,001,2023-12-06_12h23.52.050,choiceRTT,2023.1.3,Win32,60.18657839,,0,0.275555556,-0.251111111,1,0,0,2.5362,plus_button,1,1.4362,space,4.6804,,0,2,2,7,1,1.1,images/target_plus.jpg,,,,,,,,,,,
A,001,2023-12-06_12h23.52.050,choiceRTT,2023.1.3,Win32,60.18657839,,0,0.326666667,-0.236666667,1,0,0,2.7601,plus_button,1,1.4601,space,2.3278,,0,3,3,1,1,1.3,images/target_plus.jpg,,,,,,,,,,,
A,001,2023-12-06_12h23.52.050,choiceRTT,2023.1.3,Win32,60.18657839,,0,-0.215555556,-0.216666667,1,0,0,2.5817,cross_button,1,1.2817,space,1.3975,,0,4,4,3,1,1.3,images/target_cross.jpg,,,,,,,,,,,
A,001,2023-12-06_12h23.52.050,choiceRTT,2023.1.3,Win32,60.18657839,,0,-0.065555556,-0.243333333,1,0,0,2.4509,square_button,1,1.3509,space,3.1234,,0,5,5,5,1,1.1,images/target_square.jpg,,,,,,,,,,,
A,001,2023-12-06_12h23.52.050,choiceRTT,2023.1.3,Win32,60.18657839,,0,-0.011111111,-0.234444444,1,0,0,2.5158,square_button,1,1.0158,space,1.1768,,0,6,6,2,1,1.5,images/target_square.jpg,,,,,,,,,,,
A,001,2023-12-06_12h23.52.050,choiceRTT,2023.1.3,Win32,60.18657839,,0,-0.237777778,-0.225555556,1,0,0,3.0855,cross_button,1,1.5855,space,3.048,,0,7,7,6,1,1.5,images/target_cross.jpg,,,,,,,,,,,
A,001,2023-12-06_12h23.52.050,choiceRTT,2023.1.3,Win32,60.18657839,,0,0.264444444,-0.237777778,1,0,0,2.7385,plus_button,1,1.2385,space,2.8801,,0,8,8,4,1,1.5,images/target_plus.jpg,,,,,,,,,,,
A,001,2023-12-06_12h23.52.050,choiceRTT,2023.1.3,Win32,60.18657839,,,,,,,,,,,,,,,,,,,,,,,-0.011111111,-0.256666667,1,0,0,,,,,
A,001,2023-12-06_12h23.52.050,choiceRTT,2023.1.3,Win32,60.18657839,,0,-0.205555556,-0.228888889,1,0,0,2.7379,cross_button,1,1.6379,,,,,,,,,1.1,images/target_cross.jpg,,,,,,,0,0,0,0,1
A,001,2023-12-06_12h23.52.050,choiceRTT,2023.1.3,Win32,60.18657839,,0,-0.205555556,-0.228888889,1,0,0,2.1313,cross_button,1,0.6313,,,,,,,,,1.5,images/target_cross.jpg,,,,,,,0,1,1,6,1
A,001,2023-12-06_12h23.52.050,choiceRTT,2023.1.3,Win32,60.18657839,,0,0.205555556,-0.242222222,1,0,0,2.3592,plus_button,1,1.0592,,,,,,,,,1.3,images/target_plus.jpg,,,,,,,0,2,2,1,1
A,001,2023-12-06_12h23.52.050,choiceRTT,2023.1.3,Win32,60.18657839,,0,-0.053333333,-0.263333333,1,0,0,2.6715,square_button,1,1.1715,,,,,,,,,1.5,images/target_square.jpg,,,,,,,0,3,3,2,1
A,001,2023-12-06_12h23.52.050,choiceRTT,2023.1.3,Win32,60.18657839,,0,0.214444444,-0.281111111,1,0,0,2.4661,plus_button,1,1.3661,,,,,,,,,1.1,images/target_plus.jpg,,,,,,,0,4,4,7,1
A,001,2023-12-06_12h23.52.050,choiceRTT,2023.1.3,Win32,60.18657839,,0,-0.015555556,-0.251111111,1,0,0,2.0815,square_button,1,0.7815,,,,,,,,,1.3,images/target_square.jpg,,,,,,,0,5,5,8,1
A,001,2023-12-06_12h23.52.050,choiceRTT,2023.1.3,Win32,60.18657839,,0,-0.292222222,-0.275555556,1,0,0,2.2155,cross_button,1,0.9155,,,,,,,,,1.3,images/target_cross.jpg,,,,,,,0,6,6,3,1
A,001,2023-12-06_12h23.52.050,choiceRTT,2023.1.3,Win32,60.18657839,,0,-0.011111111,-0.266666667,1,0,0,2.0817,square_button,1,0.9817,,,,,,,,,1.1,images/target_square.jpg,,,,,,,0,7,7,5,1
A,001,2023-12-06_12h23.52.050,choiceRTT,2023.1.3,Win32,60.18657839,,0,0.254444444,-0.248888889,1,0,0,2.5829,plus_button,1,1.0829,,,,,,,,,1.5,images/target_plus.jpg,,,,,,,0,8,8,4,1
A,001,2023-12-06_12h23.52.050,choiceRTT,2023.1.3,Win32,60.18657839,,0,0.254444444,-0.248888889,1,0,0,0.0334,plus_button,0,-1.0666,,,,,,,,,1.1,images/target_cross.jpg,,,,,,,1,0,9,0,1
A,001,2023-12-06_12h23.52.050,choiceRTT,2023.1.3,Win32,60.18657839,,0,-0.158888889,-0.24,1,0,0,2.46,cross_button,1,1.16,,,,,,,,,1.3,images/target_cross.jpg,,,,,,,1,1,10,3,1
A,001,2023-12-06_12h23.52.050,choiceRTT,2023.1.3,Win32,60.18657839,,0,0.314444444,-0.29,1,0,0,2.1986,plus_button,1,0.8986,,,,,,,,,1.3,images/target_plus.jpg,,,,,,,1,2,11,1,1
A,001,2023-12-06_12h23.52.050,choiceRTT,2023.1.3,Win32,60.18657839,,0,0.022222222,-0.268888889,1,0,0,2.0345,square_button,1,0.7345,,,,,,,,,1.3,images/target_square.jpg,,,,,,,1,3,12,8,1
A,001,2023-12-06_12h23.52.050,choiceRTT,2023.1.3,Win32,60.18657839,,0,0.288888889,-0.244444444,1,0,0,2.6473,plus_button,1,1.1473,,,,,,,,,1.5,images/target_plus.jpg,,,,,,,1,4,13,4,1
A,001,2023-12-06_12h23.52.050,choiceRTT,2023.1.3,Win32,60.18657839,,0,-0.378888889,-0.238888889,1,0,0,2.2665,cross_button,1,0.7665,,,,,,,,,1.5,images/target_cross.jpg,,,,,,,1,5,14,6,1
A,001,2023-12-06_12h23.52.050,choiceRTT,2023.1.3,Win32,60.18657839,,0,-0.058888889,-0.237777778,1,0,0,2.4428,square_button,1,0.9428,,,,,,,,,1.5,images/target_square.jpg,,,,,,,1,6,15,2,1
A,001,2023-12-06_12h23.52.050,choiceRTT,2023.1.3,Win32,60.18657839,,0,-0.028888889,-0.256666667,1,0,0,1.4818,square_button,1,0.3818,,,,,,,,,1.1,images/target_square.jpg,,,,,,,1,7,16,5,1
A,001,2023-12-06_12h23.52.050,choiceRTT,2023.1.3,Win32,60.18657839,,0,-0.028888889,-0.256666667,1,0,0,0.0803,square_button,0,-1.0197,,,,,,,,,1.1,images/target_plus.jpg,,,,,,,1,8,17,7,1
A,001,2023-12-06_12h23.52.050,choiceRTT,2023.1.3,Win32,60.18657839,,,,,,,,,,,,,,,,,,,,,,,,,,,,,,,,
