response.keys,response.corr,mouseResp.x,mouseResp.y,mouseResp.leftButton,mouseResp.midButton,mouseResp.rightButton,mouseResp.clicked_name,practiceTrials.thisRepN,practiceTrials.thisTrialN,practiceTrials.thisN,practiceTrials.thisIndex,practiceTrials.ran,practiceTrials.order,isi,xPos,corrAns,participant,session,date,expName,psychopyVersion,frameRate,mainTrials.thisRepN,mainTrials.thisTrialN,mainTrials.thisN,mainTrials.thisIndex,mainTrials.ran,mainTrials.order
,0,0.169444444,-0.001851908,1,0,0,targImage,1,0,8,2,1,7,1,0.125,b,Aaaa,001,2020-08-22_22h07.55.633,choiceRTT,3.1.3,60,,,,,,
,0,0.370370399,-0.040740797,1,0,0,targImage,1,0,8,3,1,7,1,0.375,n,Aaaa,001,2020-08-22_22h07.55.633,choiceRTT,3.1.3,60,,,,,,
,0,0.145370399,-0.086111111,1,0,0,targImage,1,0,8,6,1,7,1,0.125,b,Aaaa,001,2020-08-22_22h07.55.633,choiceRTT,3.1.3,60,,,,,,
,0,-0.379629623,-0.029629686,1,0,0,targImage,1,0,8,0,1,7,1,-0.375,c,Aaaa,001,2020-08-22_22h07.55.633,choiceRTT,3.1.3,60,,,,,,
,0,-0.339814811,-0.001851908,1,0,0,targImage,1,0,8,4,1,7,1,-0.375,c,Aaaa,001,2020-08-22_22h07.55.633,choiceRTT,3.1.3,60,,,,,,
,0,-0.137962935,-0.008333333,1,0,0,targImage,1,0,8,5,1,7,1,-0.125,v,Aaaa,001,2020-08-22_22h07.55.633,choiceRTT,3.1.3,60,,,,,,
,0,-0.15,0.030555556,1,0,0,targImage,1,0,8,1,1,7,1,-0.125,v,Aaaa,001,2020-08-22_22h07.55.633,choiceRTT,3.1.3,60,,,,,,
,0,0.376851908,0.028703647,1,0,0,targImage,1,0,8,7,1,7,1,0.375,n,Aaaa,001,2020-08-22_22h07.55.633,choiceRTT,3.1.3,60,,,,,,
,0,0.424074131,0.012962935,1,0,0,targImage,,,,,,,1.8888,0.375,n,Aaaa,001,2020-08-22_22h07.55.633,choiceRTT,3.1.3,60,1,0,40,19,1,39
,0,0.371296353,0.062962935,1,0,0,targImage,,,,,,,2.111,0.375,n,Aaaa,001,2020-08-22_22h07.55.633,choiceRTT,3.1.3,60,1,0,40,23,1,39
,0,0.154629644,-0.025,1,0,0,targImage,,,,,,,2.7776,0.125,b,Aaaa,001,2020-08-22_22h07.55.633,choiceRTT,3.1.3,60,1,0,40,34,1,39
,0,-0.390740734,0.009259203,1,0,0,targImage,,,,,,,2.9998,-0.375,c,Aaaa,001,2020-08-22_22h07.55.633,choiceRTT,3.1.3,60,1,0,40,36,1,39
,0,0.377777778,-0.033333333,1,0,0,targImage,,,,,,,1,0.375,n,Aaaa,001,2020-08-22_22h07.55.633,choiceRTT,3.1.3,60,1,0,40,3,1,39
,0,-0.202777778,-0.011111111,1,0,0,targImage,,,,,,,1.8888,-0.125,v,Aaaa,001,2020-08-22_22h07.55.633,choiceRTT,3.1.3,60,1,0,40,17,1,39
,0,-0.139814801,-0.011111111,1,0,0,targImage,,,,,,,1,-0.125,v,Aaaa,001,2020-08-22_22h07.55.633,choiceRTT,3.1.3,60,1,0,40,1,1,39
,0,-0.12870369,-0.022222222,1,0,0,targImage,,,,,,,2.3332,-0.125,v,Aaaa,001,2020-08-22_22h07.55.633,choiceRTT,3.1.3,60,1,0,40,25,1,39
,0,-0.144444444,-0.020370399,1,0,0,targImage,,,,,,,2.9998,-0.125,v,Aaaa,001,2020-08-22_22h07.55.633,choiceRTT,3.1.3,60,1,0,40,37,1,39
,0,0.340740797,-0.007407464,1,0,0,targImage,,,,,,,2.7776,0.375,n,Aaaa,001,2020-08-22_22h07.55.633,choiceRTT,3.1.3,60,1,0,40,35,1,39
,0,-0.3824074,-0.030555556,1,0,0,targImage,,,,,,,2.5554,-0.375,c,Aaaa,001,2020-08-22_22h07.55.633,choiceRTT,3.1.3,60,1,0,40,28,1,39
,0,0.137037065,0.026851824,1,0,0,targImage,,,,,,,2.3332,0.125,b,Aaaa,001,2020-08-22_22h07.55.633,choiceRTT,3.1.3,60,1,0,40,26,1,39
,0,0.347222222,0.015740712,1,0,0,targImage,,,,,,,1.6666,0.375,n,Aaaa,001,2020-08-22_22h07.55.633,choiceRTT,3.1.3,60,1,0,40,15,1,39
,0,-0.404629623,-0.037963019,1,0,0,targImage,,,,,,,2.7776,-0.375,c,Aaaa,001,2020-08-22_22h07.55.633,choiceRTT,3.1.3,60,1,0,40,32,1,39
,0,0.349074131,0.007407379,1,0,0,targImage,,,,,,,1.4444,0.375,n,Aaaa,001,2020-08-22_22h07.55.633,choiceRTT,3.1.3,60,1,0,40,11,1,39
,0,-0.379629623,0.001851824,1,0,0,targImage,,,,,,,1.6666,-0.375,c,Aaaa,001,2020-08-22_22h07.55.633,choiceRTT,3.1.3,60,1,0,40,12,1,39
,0,0.18148151,-0.033333333,1,0,0,targImage,,,,,,,2.5554,0.125,b,Aaaa,001,2020-08-22_22h07.55.633,choiceRTT,3.1.3,60,1,0,40,30,1,39
,0,-0.375,-0.029629686,1,0,0,targImage,,,,,,,1.2222,-0.375,c,Aaaa,001,2020-08-22_22h07.55.633,choiceRTT,3.1.3,60,1,0,40,4,1,39
,0,0.367592621,0.025925869,1,0,0,targImage,,,,,,,1.2222,0.375,n,Aaaa,001,2020-08-22_22h07.55.633,choiceRTT,3.1.3,60,1,0,40,7,1,39
,0,0.126851866,0.011111111,1,0,0,targImage,,,,,,,2.9998,0.125,b,Aaaa,001,2020-08-22_22h07.55.633,choiceRTT,3.1.3,60,1,0,40,38,1,39
,0,0.132407422,0.025,1,0,0,targImage,,,,,,,2.111,0.125,b,Aaaa,001,2020-08-22_22h07.55.633,choiceRTT,3.1.3,60,1,0,40,22,1,39
,0,-0.138888889,-0.025,1,0,0,targImage,,,,,,,1.4444,-0.125,v,Aaaa,001,2020-08-22_22h07.55.633,choiceRTT,3.1.3,60,1,0,40,9,1,39
,0,0.371296353,0.024074046,1,0,0,targImage,,,,,,,2.9998,0.375,n,Aaaa,001,2020-08-22_22h07.55.633,choiceRTT,3.1.3,60,1,0,40,39,1,39
,0,0.136111111,0,1,0,0,targImage,,,,,,,1.6666,0.125,b,Aaaa,001,2020-08-22_22h07.55.633,choiceRTT,3.1.3,60,1,0,40,14,1,39
,0,0.070370399,0.006481425,1,0,0,targImage,,,,,,,1.4444,0.125,b,Aaaa,001,2020-08-22_22h07.55.633,choiceRTT,3.1.3,60,1,0,40,10,1,39
,0,-0.070370356,-0.026851908,1,0,0,targImage,,,,,,,1.2222,-0.125,v,Aaaa,001,2020-08-22_22h07.55.633,choiceRTT,3.1.3,60,1,0,40,5,1,39
,0,-0.123148134,0,1,0,0,targImage,,,,,,,1.6666,-0.125,v,Aaaa,001,2020-08-22_22h07.55.633,choiceRTT,3.1.3,60,1,0,40,13,1,39
,0,-0.376851845,-0.025,1,0,0,targImage,,,,,,,2.3332,-0.375,c,Aaaa,001,2020-08-22_22h07.55.633,choiceRTT,3.1.3,60,1,0,40,24,1,39
,0,-0.411111111,-0.022222222,1,0,0,targImage,,,,,,,1.8888,-0.375,c,Aaaa,001,2020-08-22_22h07.55.633,choiceRTT,3.1.3,60,1,0,40,16,1,39
,0,0.347222222,0.011111111,1,0,0,targImage,,,,,,,2.3332,0.375,n,Aaaa,001,2020-08-22_22h07.55.633,choiceRTT,3.1.3,60,1,0,40,27,1,39
,0,-0.424074072,0.030555556,1,0,0,targImage,,,,,,,1,-0.375,c,Aaaa,001,2020-08-22_22h07.55.633,choiceRTT,3.1.3,60,1,0,40,0,1,39
,0,-0.364814811,-0.024074131,1,0,0,targImage,,,,,,,2.111,-0.375,c,Aaaa,001,2020-08-22_22h07.55.633,choiceRTT,3.1.3,60,1,0,40,20,1,39
,0,0.140740755,0.063888889,1,0,0,targImage,,,,,,,1.2222,0.125,b,Aaaa,001,2020-08-22_22h07.55.633,choiceRTT,3.1.3,60,1,0,40,6,1,39
,0,-0.089814801,0.005555556,1,0,0,targImage,,,,,,,2.111,-0.125,v,Aaaa,001,2020-08-22_22h07.55.633,choiceRTT,3.1.3,60,1,0,40,21,1,39
,0,0.104629644,0.012962935,1,0,0,targImage,,,,,,,1,0.125,b,Aaaa,001,2020-08-22_22h07.55.633,choiceRTT,3.1.3,60,1,0,40,2,1,39
,0,0.112962977,0.020370314,1,0,0,targImage,,,,,,,1.8888,0.125,b,Aaaa,001,2020-08-22_22h07.55.633,choiceRTT,3.1.3,60,1,0,40,18,1,39
,0,-0.412962961,0.002777778,1,0,0,targImage,,,,,,,1.4444,-0.375,c,Aaaa,001,2020-08-22_22h07.55.633,choiceRTT,3.1.3,60,1,0,40,8,1,39
,0,-0.119444444,-0.049074131,1,0,0,targImage,,,,,,,2.7776,-0.125,v,Aaaa,001,2020-08-22_22h07.55.633,choiceRTT,3.1.3,60,1,0,40,33,1,39
,0,0.33148151,-0.012037065,1,0,0,targImage,,,,,,,2.5554,0.375,n,Aaaa,001,2020-08-22_22h07.55.633,choiceRTT,3.1.3,60,1,0,40,31,1,39
,0,-0.138888889,-0.072222222,1,0,0,targImage,,,,,,,2.5554,-0.125,v,Aaaa,001,2020-08-22_22h07.55.633,choiceRTT,3.1.3,60,1,0,40,29,1,39
