response.keys,response.corr,mouseResp.x,mouseResp.y,mouseResp.leftButton,mouseResp.midButton,mouseResp.rightButton,mouseResp.clicked_name,practiceTrials.thisRepN,practiceTrials.thisTrialN,practiceTrials.thisN,practiceTrials.thisIndex,practiceTrials.ran,practiceTrials.order,isi,xPos,corrAns,participant,session,date,expName,psychopyVersion,frameRate,mainTrials.thisRepN,mainTrials.thisTrialN,mainTrials.thisN,mainTrials.thisIndex,mainTrials.ran,mainTrials.order
,0,0.04276472,0.034905175,1,0,0,targImage,1,0,8,2,1,7,1,0.125,b,Alexander Solomonov,001,2021-10-17_22h50.47.255,choiceRTT,3.1.3,60,,,,,,
,0,0.151872446,-0.03074436,1,0,0,targImage,1,0,8,6,1,7,1,0.125,b,Alexander Solomonov,001,2021-10-17_22h50.47.255,choiceRTT,3.1.3,60,,,,,,
,0,0.401525716,-0.006703788,1,0,0,targImage,1,0,8,3,1,7,1,0.375,n,Alexander Solomonov,001,2021-10-17_22h50.47.255,choiceRTT,3.1.3,60,,,,,,
,0,0.361766347,-0.015950092,1,0,0,targImage,1,0,8,7,1,7,1,0.375,n,Alexander Solomonov,001,2021-10-17_22h50.47.255,choiceRTT,3.1.3,60,,,,,,
,0,-0.113499621,-0.018724018,1,0,0,targImage,1,0,8,5,1,7,1,-0.125,v,Alexander Solomonov,001,2021-10-17_22h50.47.255,choiceRTT,3.1.3,60,,,,,,
,0,-0.114424263,-0.018724018,1,0,0,targImage,1,0,8,1,1,7,1,-0.125,v,Alexander Solomonov,001,2021-10-17_22h50.47.255,choiceRTT,3.1.3,60,,,,,,
,0,-0.376097989,-0.006703788,1,0,0,targImage,1,0,8,4,1,7,1,-0.375,c,Alexander Solomonov,001,2021-10-17_22h50.47.255,choiceRTT,3.1.3,60,,,,,,
,0,-0.377022631,-0.006703788,1,0,0,targImage,1,0,8,0,1,7,1,-0.375,c,Alexander Solomonov,001,2021-10-17_22h50.47.255,choiceRTT,3.1.3,60,,,,,,
,0,-0.140314232,-0.005779033,1,0,0,targImage,,,,,,,2.9998,-0.125,v,Alexander Solomonov,001,2021-10-17_22h50.47.255,choiceRTT,3.1.3,60,1,0,40,37,1,39
,0,0.426491269,-0.0094776,1,0,0,targImage,,,,,,,1,0.375,n,Alexander Solomonov,001,2021-10-17_22h50.47.255,choiceRTT,3.1.3,60,1,0,40,3,1,39
,0,-0.091308332,-0.004854392,1,0,0,targImage,,,,,,,1,-0.125,v,Alexander Solomonov,001,2021-10-17_22h50.47.255,choiceRTT,3.1.3,60,1,0,40,1,1,39
,0,0.407073793,-0.020573301,1,0,0,targImage,,,,,,,2.3332,0.375,n,Alexander Solomonov,001,2021-10-17_22h50.47.255,choiceRTT,3.1.3,60,1,0,40,27,1,39
,0,0.145399954,-0.01317628,1,0,0,targImage,,,,,,,2.9998,0.125,b,Alexander Solomonov,001,2021-10-17_22h50.47.255,choiceRTT,3.1.3,60,1,0,40,38,1,39
,0,0.066805631,-0.016874734,1,0,0,targImage,,,,,,,1,0.125,b,Alexander Solomonov,001,2021-10-17_22h50.47.255,choiceRTT,3.1.3,60,1,0,40,2,1,39
,0,-0.422330076,-0.015950092,1,0,0,targImage,,,,,,,1.4444,-0.375,c,Alexander Solomonov,001,2021-10-17_22h50.47.255,choiceRTT,3.1.3,60,1,0,40,8,1,39
,0,0.08529824,-0.029819719,1,0,0,targImage,,,,,,,2.111,0.125,b,Alexander Solomonov,001,2021-10-17_22h50.47.255,choiceRTT,3.1.3,60,1,0,40,22,1,39
,0,-0.094082145,-0.026121264,1,0,0,targImage,,,,,,,1.2222,-0.125,v,Alexander Solomonov,001,2021-10-17_22h50.47.255,choiceRTT,3.1.3,60,1,0,40,5,1,39
,0,-0.094082145,-0.02519651,1,0,0,targImage,,,,,,,2.5554,-0.125,v,Alexander Solomonov,001,2021-10-17_22h50.47.255,choiceRTT,3.1.3,60,1,0,40,29,1,39
,0,0.147249237,-0.006703788,1,0,0,targImage,,,,,,,1.2222,0.125,b,Alexander Solomonov,001,2021-10-17_22h50.47.255,choiceRTT,3.1.3,60,1,0,40,6,1,39
,0,-0.17637526,0.003467384,1,0,0,targImage,,,,,,,2.3332,-0.125,v,Alexander Solomonov,001,2021-10-17_22h50.47.255,choiceRTT,3.1.3,60,1,0,40,25,1,39
,0,0.093620016,-0.0094776,1,0,0,targImage,,,,,,,1.8888,0.125,b,Alexander Solomonov,001,2021-10-17_22h50.47.255,choiceRTT,3.1.3,60,1,0,40,18,1,39
,0,-0.301202008,0.001618101,1,0,0,targImage,,,,,,,1.8888,-0.375,c,Alexander Solomonov,001,2021-10-17_22h50.47.255,choiceRTT,3.1.3,60,1,0,40,16,1,39
,0,0.090846091,-0.017799376,1,0,0,targImage,,,,,,,1.4444,0.125,b,Alexander Solomonov,001,2021-10-17_22h50.47.255,choiceRTT,3.1.3,60,1,0,40,10,1,39
,0,-0.296578799,0.003467384,1,0,0,targImage,,,,,,,2.9998,-0.375,c,Alexander Solomonov,001,2021-10-17_22h50.47.255,choiceRTT,3.1.3,60,1,0,40,36,1,39
,0,-0.308599029,-0.01317628,1,0,0,targImage,,,,,,,1,-0.375,c,Alexander Solomonov,001,2021-10-17_22h50.47.255,choiceRTT,3.1.3,60,1,0,40,0,1,39
,0,-0.169902768,-0.020573301,1,0,0,targImage,,,,,,,2.111,-0.125,v,Alexander Solomonov,001,2021-10-17_22h50.47.255,choiceRTT,3.1.3,60,1,0,40,21,1,39
,0,-0.289181552,-0.020573301,1,0,0,targImage,,,,,,,2.111,-0.375,c,Alexander Solomonov,001,2021-10-17_22h50.47.255,choiceRTT,3.1.3,60,1,0,40,20,1,39
,0,0.32385581,-0.048312553,1,0,0,targImage,,,,,,,2.9998,0.375,n,Alexander Solomonov,001,2021-10-17_22h50.47.255,choiceRTT,3.1.3,60,1,0,40,39,1,39
,0,0.370087897,-0.015025564,1,0,0,targImage,,,,,,,2.5554,0.375,n,Alexander Solomonov,001,2021-10-17_22h50.47.255,choiceRTT,3.1.3,60,1,0,40,31,1,39
,0,0.2018031,-0.03444304,1,0,0,targImage,,,,,,,2.7776,0.125,b,Alexander Solomonov,001,2021-10-17_22h50.47.255,choiceRTT,3.1.3,60,1,0,40,34,1,39
,0,0.089921675,0.013638443,1,0,0,targImage,,,,,,,1.6666,0.125,b,Alexander Solomonov,001,2021-10-17_22h50.47.255,choiceRTT,3.1.3,60,1,0,40,14,1,39
,0,-0.446370677,0.006241197,1,0,0,targImage,,,,,,,1.6666,-0.375,c,Alexander Solomonov,001,2021-10-17_22h50.47.255,choiceRTT,3.1.3,60,1,0,40,12,1,39
,0,-0.312297596,-0.032593757,1,0,0,targImage,,,,,,,2.5554,-0.375,c,Alexander Solomonov,001,2021-10-17_22h50.47.255,choiceRTT,3.1.3,60,1,0,40,28,1,39
,0,-0.314146992,-0.032593757,1,0,0,targImage,,,,,,,1.2222,-0.375,c,Alexander Solomonov,001,2021-10-17_22h50.47.255,choiceRTT,3.1.3,60,1,0,40,4,1,39
,0,0.046463287,0.006241197,1,0,0,targImage,,,,,,,2.5554,0.125,b,Alexander Solomonov,001,2021-10-17_22h50.47.255,choiceRTT,3.1.3,60,1,0,40,30,1,39
,0,0.342348871,0.007165951,1,0,0,targImage,,,,,,,1.6666,0.375,n,Alexander Solomonov,001,2021-10-17_22h50.47.255,choiceRTT,3.1.3,60,1,0,40,15,1,39
,0,-0.298428083,-0.016874734,1,0,0,targImage,,,,,,,2.7776,-0.375,c,Alexander Solomonov,001,2021-10-17_22h50.47.255,choiceRTT,3.1.3,60,1,0,40,32,1,39
,0,0.334026869,-0.018724018,1,0,0,targImage,,,,,,,2.7776,0.375,n,Alexander Solomonov,001,2021-10-17_22h50.47.255,choiceRTT,3.1.3,60,1,0,40,35,1,39
,0,-0.154183971,-0.020573301,1,0,0,targImage,,,,,,,1.4444,-0.125,v,Alexander Solomonov,001,2021-10-17_22h50.47.255,choiceRTT,3.1.3,60,1,0,40,9,1,39
,0,-0.180998469,-0.018724018,1,0,0,targImage,,,,,,,1.6666,-0.125,v,Alexander Solomonov,001,2021-10-17_22h50.47.255,choiceRTT,3.1.3,60,1,0,40,13,1,39
,0,-0.180998469,-0.018724018,1,0,0,targImage,,,,,,,2.7776,-0.125,v,Alexander Solomonov,001,2021-10-17_22h50.47.255,choiceRTT,3.1.3,60,1,0,40,33,1,39
,0,0.034443114,0.000693459,1,0,0,targImage,,,,,,,2.3332,0.125,b,Alexander Solomonov,001,2021-10-17_22h50.47.255,choiceRTT,3.1.3,60,1,0,40,26,1,39
,0,0.413546285,-0.016874734,1,0,0,targImage,,,,,,,1.8888,0.375,n,Alexander Solomonov,001,2021-10-17_22h50.47.255,choiceRTT,3.1.3,60,1,0,40,19,1,39
,0,-0.289181552,-0.005779033,1,0,0,targImage,,,,,,,2.3332,-0.375,c,Alexander Solomonov,001,2021-10-17_22h50.47.255,choiceRTT,3.1.3,60,1,0,40,24,1,39
,0,0.325705319,-0.015950092,1,0,0,targImage,,,,,,,1.4444,0.375,n,Alexander Solomonov,001,2021-10-17_22h50.47.255,choiceRTT,3.1.3,60,1,0,40,11,1,39
,0,0.397827149,-0.028895077,1,0,0,targImage,,,,,,,2.111,0.375,n,Alexander Solomonov,001,2021-10-17_22h50.47.255,choiceRTT,3.1.3,60,1,0,40,23,1,39
,0,-0.131992569,-0.028895077,1,0,0,targImage,,,,,,,1.8888,-0.125,v,Alexander Solomonov,001,2021-10-17_22h50.47.255,choiceRTT,3.1.3,60,1,0,40,17,1,39
,0,0.409847718,-0.027970548,1,0,0,targImage,,,,,,,1.2222,0.375,n,Alexander Solomonov,001,2021-10-17_22h50.47.255,choiceRTT,3.1.3,60,1,0,40,7,1,39
