response.keys,response.corr,mouseResp.x,mouseResp.y,mouseResp.leftButton,mouseResp.midButton,mouseResp.rightButton,mouseResp.clicked_name,practiceTrials.thisRepN,practiceTrials.thisTrialN,practiceTrials.thisN,practiceTrials.thisIndex,practiceTrials.ran,practiceTrials.order,isi,xPos,corrAns,participant,session,date,expName,psychopyVersion,frameRate,mainTrials.thisRepN,mainTrials.thisTrialN,mainTrials.thisN,mainTrials.thisIndex,mainTrials.ran,mainTrials.order
,0,0.112962963,0.032407407,1,0,0,targImage,1,0,8,6,1,7,1,0.125,b,AZ,001,2021-02-02_12h15.37.247,choiceRTT,3.1.3,60,,,,,,
,0,-0.118518519,-0.021296296,1,0,0,targImage,1,0,8,1,1,7,1,-0.125,v,AZ,001,2021-02-02_12h15.37.247,choiceRTT,3.1.3,60,,,,,,
,0,-0.381481481,-0.013888889,1,0,0,targImage,1,0,8,4,1,7,1,-0.375,c,AZ,001,2021-02-02_12h15.37.247,choiceRTT,3.1.3,60,,,,,,
,0,-0.148148148,-0.043518519,1,0,0,targImage,1,0,8,5,1,7,1,-0.125,v,AZ,001,2021-02-02_12h15.37.247,choiceRTT,3.1.3,60,,,,,,
,0,0.147222222,-0.006481481,1,0,0,targImage,1,0,8,2,1,7,1,0.125,b,AZ,001,2021-02-02_12h15.37.247,choiceRTT,3.1.3,60,,,,,,
,0,0.374074074,-0.00462963,1,0,0,targImage,1,0,8,7,1,7,1,0.375,n,AZ,001,2021-02-02_12h15.37.247,choiceRTT,3.1.3,60,,,,,,
,0,-0.338888889,-0.006481481,1,0,0,targImage,1,0,8,0,1,7,1,-0.375,c,AZ,001,2021-02-02_12h15.37.247,choiceRTT,3.1.3,60,,,,,,
,0,0.361111111,-0.007407407,1,0,0,targImage,1,0,8,3,1,7,1,0.375,n,AZ,001,2021-02-02_12h15.37.247,choiceRTT,3.1.3,60,,,,,,
,0,-0.353703704,-0.023148148,1,0,0,targImage,,,,,,,2.3332,-0.375,c,AZ,001,2021-02-02_12h15.37.247,choiceRTT,3.1.3,60,1,0,40,24,1,39
,0,-0.35462963,0,1,0,0,targImage,,,,,,,2.111,-0.375,c,AZ,001,2021-02-02_12h15.37.247,choiceRTT,3.1.3,60,1,0,40,20,1,39
,0,-0.318518519,-0.033333333,1,0,0,targImage,,,,,,,2.5554,-0.375,c,AZ,001,2021-02-02_12h15.37.247,choiceRTT,3.1.3,60,1,0,40,28,1,39
,0,-0.35,0.000925926,1,0,0,targImage,,,,,,,1,-0.375,c,AZ,001,2021-02-02_12h15.37.247,choiceRTT,3.1.3,60,1,0,40,0,1,39
,0,0.119444444,0.000925926,1,0,0,targImage,,,,,,,1.4444,0.125,b,AZ,001,2021-02-02_12h15.37.247,choiceRTT,3.1.3,60,1,0,40,10,1,39
,0,0.112037037,0.001851852,1,0,0,targImage,,,,,,,2.5554,0.125,b,AZ,001,2021-02-02_12h15.37.247,choiceRTT,3.1.3,60,1,0,40,30,1,39
,0,-0.35,-0.000925926,1,0,0,targImage,,,,,,,1.6666,-0.375,c,AZ,001,2021-02-02_12h15.37.247,choiceRTT,3.1.3,60,1,0,40,12,1,39
,0,-0.116666667,-0.007407407,1,0,0,targImage,,,,,,,1.2222,-0.125,v,AZ,001,2021-02-02_12h15.37.247,choiceRTT,3.1.3,60,1,0,40,5,1,39
,0,0.125,0.008333333,1,0,0,targImage,,,,,,,1.2222,0.125,b,AZ,001,2021-02-02_12h15.37.247,choiceRTT,3.1.3,60,1,0,40,6,1,39
,0,0.378703704,0.032407407,1,0,0,targImage,,,,,,,1.8888,0.375,n,AZ,001,2021-02-02_12h15.37.247,choiceRTT,3.1.3,60,1,0,40,19,1,39
,0,0.117592593,0.030555556,1,0,0,targImage,,,,,,,2.111,0.125,b,AZ,001,2021-02-02_12h15.37.247,choiceRTT,3.1.3,60,1,0,40,22,1,39
,0,-0.351851852,-0.037037037,1,0,0,targImage,,,,,,,1.8888,-0.375,c,AZ,001,2021-02-02_12h15.37.247,choiceRTT,3.1.3,60,1,0,40,16,1,39
,0,-0.080555556,-0.022222222,1,0,0,targImage,,,,,,,2.111,-0.125,v,AZ,001,2021-02-02_12h15.37.247,choiceRTT,3.1.3,60,1,0,40,21,1,39
,0,-0.121296296,-0.019444444,1,0,0,targImage,,,,,,,1.8888,-0.125,v,AZ,001,2021-02-02_12h15.37.247,choiceRTT,3.1.3,60,1,0,40,17,1,39
,0,0.347222222,0.015740741,1,0,0,targImage,,,,,,,1.6666,0.375,n,AZ,001,2021-02-02_12h15.37.247,choiceRTT,3.1.3,60,1,0,40,15,1,39
,0,-0.350925926,-0.023148148,1,0,0,targImage,,,,,,,1.2222,-0.375,c,AZ,001,2021-02-02_12h15.37.247,choiceRTT,3.1.3,60,1,0,40,4,1,39
,0,-0.105555556,-0.033333333,1,0,0,targImage,,,,,,,2.5554,-0.125,v,AZ,001,2021-02-02_12h15.37.247,choiceRTT,3.1.3,60,1,0,40,29,1,39
,0,0.152777778,-0.02037037,1,0,0,targImage,,,,,,,2.7776,0.125,b,AZ,001,2021-02-02_12h15.37.247,choiceRTT,3.1.3,60,1,0,40,34,1,39
,0,0.132407407,-0.02037037,1,0,0,targImage,,,,,,,1.6666,0.125,b,AZ,001,2021-02-02_12h15.37.247,choiceRTT,3.1.3,60,1,0,40,14,1,39
,0,0.365740741,0.001851852,1,0,0,targImage,,,,,,,2.111,0.375,n,AZ,001,2021-02-02_12h15.37.247,choiceRTT,3.1.3,60,1,0,40,23,1,39
,0,0.398148148,0.028703704,1,0,0,targImage,,,,,,,2.9998,0.375,n,AZ,001,2021-02-02_12h15.37.247,choiceRTT,3.1.3,60,1,0,40,39,1,39
,0,-0.355555556,-0.028703704,1,0,0,targImage,,,,,,,2.9998,-0.375,c,AZ,001,2021-02-02_12h15.37.247,choiceRTT,3.1.3,60,1,0,40,36,1,39
,0,0.355555556,-0.003703704,1,0,0,targImage,,,,,,,2.5554,0.375,n,AZ,001,2021-02-02_12h15.37.247,choiceRTT,3.1.3,60,1,0,40,31,1,39
,0,-0.336111111,-0.019444444,1,0,0,targImage,,,,,,,1.4444,-0.375,c,AZ,001,2021-02-02_12h15.37.247,choiceRTT,3.1.3,60,1,0,40,8,1,39
,0,0.381481481,-0.031481481,1,0,0,targImage,,,,,,,1.4444,0.375,n,AZ,001,2021-02-02_12h15.37.247,choiceRTT,3.1.3,60,1,0,40,11,1,39
,0,0.164814815,-0.012962963,1,0,0,targImage,,,,,,,2.9998,0.125,b,AZ,001,2021-02-02_12h15.37.247,choiceRTT,3.1.3,60,1,0,40,38,1,39
,0,-0.114814815,-0.007407407,1,0,0,targImage,,,,,,,2.3332,-0.125,v,AZ,001,2021-02-02_12h15.37.247,choiceRTT,3.1.3,60,1,0,40,25,1,39
,0,0.138888889,-0.002777778,1,0,0,targImage,,,,,,,1.8888,0.125,b,AZ,001,2021-02-02_12h15.37.247,choiceRTT,3.1.3,60,1,0,40,18,1,39
,0,-0.149074074,-0.02037037,1,0,0,targImage,,,,,,,2.7776,-0.125,v,AZ,001,2021-02-02_12h15.37.247,choiceRTT,3.1.3,60,1,0,40,33,1,39
,0,0.377777778,-0.012962963,1,0,0,targImage,,,,,,,2.7776,0.375,n,AZ,001,2021-02-02_12h15.37.247,choiceRTT,3.1.3,60,1,0,40,35,1,39
,0,-0.113888889,-0.019444444,1,0,0,targImage,,,,,,,2.9998,-0.125,v,AZ,001,2021-02-02_12h15.37.247,choiceRTT,3.1.3,60,1,0,40,37,1,39
,0,0.367592593,-0.000925926,1,0,0,targImage,,,,,,,1,0.375,n,AZ,001,2021-02-02_12h15.37.247,choiceRTT,3.1.3,60,1,0,40,3,1,39
,0,-0.101851852,-0.038888889,1,0,0,targImage,,,,,,,1.4444,-0.125,v,AZ,001,2021-02-02_12h15.37.247,choiceRTT,3.1.3,60,1,0,40,9,1,39
,0,0.132407407,-0.012962963,1,0,0,targImage,,,,,,,2.3332,0.125,b,AZ,001,2021-02-02_12h15.37.247,choiceRTT,3.1.3,60,1,0,40,26,1,39
,0,0.350925926,0.00462963,1,0,0,targImage,,,,,,,1.2222,0.375,n,AZ,001,2021-02-02_12h15.37.247,choiceRTT,3.1.3,60,1,0,40,7,1,39
,0,0.133333333,-0.018518519,1,0,0,targImage,,,,,,,1,0.125,b,AZ,001,2021-02-02_12h15.37.247,choiceRTT,3.1.3,60,1,0,40,2,1,39
,0,0.391666667,0.028703704,1,0,0,targImage,,,,,,,2.3332,0.375,n,AZ,001,2021-02-02_12h15.37.247,choiceRTT,3.1.3,60,1,0,40,27,1,39
,0,-0.367592593,-0.001851852,1,0,0,targImage,,,,,,,2.7776,-0.375,c,AZ,001,2021-02-02_12h15.37.247,choiceRTT,3.1.3,60,1,0,40,32,1,39
,0,-0.09537037,-0.012037037,1,0,0,targImage,,,,,,,1,-0.125,v,AZ,001,2021-02-02_12h15.37.247,choiceRTT,3.1.3,60,1,0,40,1,1,39
,0,-0.109259259,-0.018518519,1,0,0,targImage,,,,,,,1.6666,-0.125,v,AZ,001,2021-02-02_12h15.37.247,choiceRTT,3.1.3,60,1,0,40,13,1,39
