response.keys,response.corr,mouseResp.x,mouseResp.y,mouseResp.leftButton,mouseResp.midButton,mouseResp.rightButton,mouseResp.clicked_name,practiceTrials.thisRepN,practiceTrials.thisTrialN,practiceTrials.thisN,practiceTrials.thisIndex,practiceTrials.ran,practiceTrials.order,isi,xPos,corrAns,participant,session,date,expName,psychopyVersion,frameRate,mainTrials.thisRepN,mainTrials.thisTrialN,mainTrials.thisN,mainTrials.thisIndex,mainTrials.ran,mainTrials.order
,0,0.148412184,-0.002268308,1,0,0,targImage,1,0,8,6,1,7,1,0.125,b,bonzo,001,2021-01-15_16h50.07.313,choiceRTT,3.1.3,60,,,,,,
,0,-0.14646792,-0.006156837,1,0,0,targImage,1,0,8,5,1,7,1,-0.125,v,bonzo,001,2021-01-15_16h50.07.313,choiceRTT,3.1.3,60,,,,,,
,0,-0.149060272,0.012637719,1,0,0,targImage,1,0,8,1,1,7,1,-0.125,v,bonzo,001,2021-01-15_16h50.07.313,choiceRTT,3.1.3,60,,,,,,
,0,0.360985094,-0.010045366,1,0,0,targImage,1,0,8,3,1,7,1,0.375,n,bonzo,001,2021-01-15_16h50.07.313,choiceRTT,3.1.3,60,,,,,,
,0,-0.349967596,-0.006804925,1,0,0,targImage,1,0,8,4,1,7,1,-0.375,c,bonzo,001,2021-01-15_16h50.07.313,choiceRTT,3.1.3,60,,,,,,
,0,0.404406999,-0.019766688,1,0,0,targImage,1,0,8,7,1,7,1,0.375,n,bonzo,001,2021-01-15_16h50.07.313,choiceRTT,3.1.3,60,,,,,,
,0,-0.352559948,0.004860661,1,0,0,targImage,1,0,8,0,1,7,1,-0.375,c,bonzo,001,2021-01-15_16h50.07.313,choiceRTT,3.1.3,60,,,,,,
,0,0.097861309,-0.000972132,1,0,0,targImage,1,0,8,2,1,7,1,0.125,b,bonzo,001,2021-01-15_16h50.07.313,choiceRTT,3.1.3,60,,,,,,
,0,-0.116007777,-0.012637719,1,0,0,targImage,,,,,,,1.6666,-0.125,v,bonzo,001,2021-01-15_16h50.07.313,choiceRTT,3.1.3,60,1,0,40,13,1,39
,0,0.129617628,-0.005508749,1,0,0,targImage,,,,,,,1.4444,0.125,b,bonzo,001,2021-01-15_16h50.07.313,choiceRTT,3.1.3,60,1,0,40,10,1,39
,0,-0.143875567,-0.00874919,1,0,0,targImage,,,,,,,1.2222,-0.125,v,bonzo,001,2021-01-15_16h50.07.313,choiceRTT,3.1.3,60,1,0,40,5,1,39
,0,0.185353208,-0.004860661,1,0,0,targImage,,,,,,,2.3332,0.125,b,bonzo,001,2021-01-15_16h50.07.313,choiceRTT,3.1.3,60,1,0,40,26,1,39
,0,0.127025275,-0.010693454,1,0,0,targImage,,,,,,,1.2222,0.125,b,bonzo,001,2021-01-15_16h50.07.313,choiceRTT,3.1.3,60,1,0,40,6,1,39
,0,-0.34154245,-0.017174336,1,0,0,targImage,,,,,,,2.9998,-0.375,c,bonzo,001,2021-01-15_16h50.07.313,choiceRTT,3.1.3,60,1,0,40,36,1,39
,0,0.353208036,-0.00874919,1,0,0,targImage,,,,,,,1.6666,0.375,n,bonzo,001,2021-01-15_16h50.07.313,choiceRTT,3.1.3,60,1,0,40,15,1,39
,0,0.368762152,-0.012637719,1,0,0,targImage,,,,,,,2.5554,0.375,n,bonzo,001,2021-01-15_16h50.07.313,choiceRTT,3.1.3,60,1,0,40,31,1,39
,0,0.16720674,-0.002268308,1,0,0,targImage,,,,,,,2.9998,0.125,b,bonzo,001,2021-01-15_16h50.07.313,choiceRTT,3.1.3,60,1,0,40,38,1,39
,0,0.133506157,-0.007453014,1,0,0,targImage,,,,,,,1.6666,0.125,b,bonzo,001,2021-01-15_16h50.07.313,choiceRTT,3.1.3,60,1,0,40,14,1,39
,0,-0.320155541,-0.015230071,1,0,0,targImage,,,,,,,1,-0.375,c,bonzo,001,2021-01-15_16h50.07.313,choiceRTT,3.1.3,60,1,0,40,0,1,39
,0,-0.144523655,-0.000324044,1,0,0,targImage,,,,,,,1.4444,-0.125,v,bonzo,001,2021-01-15_16h50.07.313,choiceRTT,3.1.3,60,1,0,40,9,1,39
,0,0.447828905,-0.009397278,1,0,0,targImage,,,,,,,2.111,0.375,n,bonzo,001,2021-01-15_16h50.07.313,choiceRTT,3.1.3,60,1,0,40,23,1,39
,0,0.28580687,0.011989631,1,0,0,targImage,,,,,,,1.4444,0.375,n,bonzo,001,2021-01-15_16h50.07.313,choiceRTT,3.1.3,60,1,0,40,11,1,39
,0,0.373298769,-0.006156837,1,0,0,targImage,,,,,,,1.8888,0.375,n,bonzo,001,2021-01-15_16h50.07.313,choiceRTT,3.1.3,60,1,0,40,19,1,39
,0,-0.18470512,-0.000972132,1,0,0,targImage,,,,,,,2.5554,-0.125,v,bonzo,001,2021-01-15_16h50.07.313,choiceRTT,3.1.3,60,1,0,40,29,1,39
,0,-0.176928062,-0.012637719,1,0,0,targImage,,,,,,,2.111,-0.125,v,bonzo,001,2021-01-15_16h50.07.313,choiceRTT,3.1.3,60,1,0,40,21,1,39
,0,0.12896954,-0.031432275,1,0,0,targImage,,,,,,,2.111,0.125,b,bonzo,001,2021-01-15_16h50.07.313,choiceRTT,3.1.3,60,1,0,40,22,1,39
,0,-0.307193778,-0.010693454,1,0,0,targImage,,,,,,,2.7776,-0.375,c,bonzo,001,2021-01-15_16h50.07.313,choiceRTT,3.1.3,60,1,0,40,32,1,39
,0,-0.347375243,-0.017822424,1,0,0,targImage,,,,,,,1.6666,-0.375,c,bonzo,001,2021-01-15_16h50.07.313,choiceRTT,3.1.3,60,1,0,40,12,1,39
,0,0.072585872,0.013933895,1,0,0,targImage,,,,,,,2.5554,0.125,b,bonzo,001,2021-01-15_16h50.07.313,choiceRTT,3.1.3,60,1,0,40,30,1,39
,0,-0.361633182,-0.010693454,1,0,0,targImage,,,,,,,1.8888,-0.375,c,bonzo,001,2021-01-15_16h50.07.313,choiceRTT,3.1.3,60,1,0,40,16,1,39
,0,0.346079067,-0.002268308,1,0,0,targImage,,,,,,,2.3332,0.375,n,bonzo,001,2021-01-15_16h50.07.313,choiceRTT,3.1.3,60,1,0,40,27,1,39
,0,-0.402462735,0.00874919,1,0,0,targImage,,,,,,,2.3332,-0.375,c,bonzo,001,2021-01-15_16h50.07.313,choiceRTT,3.1.3,60,1,0,40,24,1,39
,0,-0.370058328,-0.008101102,1,0,0,targImage,,,,,,,1.2222,-0.375,c,bonzo,001,2021-01-15_16h50.07.313,choiceRTT,3.1.3,60,1,0,40,4,1,39
,0,0.357096565,0.017822424,1,0,0,targImage,,,,,,,2.7776,0.375,n,bonzo,001,2021-01-15_16h50.07.313,choiceRTT,3.1.3,60,1,0,40,35,1,39
,0,-0.370706416,-0.010693454,1,0,0,targImage,,,,,,,2.111,-0.375,c,bonzo,001,2021-01-15_16h50.07.313,choiceRTT,3.1.3,60,1,0,40,20,1,39
,0,0.370706416,0.004212573,1,0,0,targImage,,,,,,,2.9998,0.375,n,bonzo,001,2021-01-15_16h50.07.313,choiceRTT,3.1.3,60,1,0,40,39,1,39
,0,-0.11860013,-0.002916397,1,0,0,targImage,,,,,,,2.3332,-0.125,v,bonzo,001,2021-01-15_16h50.07.313,choiceRTT,3.1.3,60,1,0,40,25,1,39
,0,0.375891121,-0.021710953,1,0,0,targImage,,,,,,,1.2222,0.375,n,bonzo,001,2021-01-15_16h50.07.313,choiceRTT,3.1.3,60,1,0,40,7,1,39
,0,-0.289695399,0.004860661,1,0,0,targImage,,,,,,,2.5554,-0.375,c,bonzo,001,2021-01-15_16h50.07.313,choiceRTT,3.1.3,60,1,0,40,28,1,39
,0,0.160725859,-0.023655217,1,0,0,targImage,,,,,,,1,0.125,b,bonzo,001,2021-01-15_16h50.07.313,choiceRTT,3.1.3,60,1,0,40,2,1,39
,0,0.416720674,-0.017174336,1,0,0,targImage,,,,,,,1,0.375,n,bonzo,001,2021-01-15_16h50.07.313,choiceRTT,3.1.3,60,1,0,40,3,1,39
,0,0.08360337,-0.020414776,1,0,0,targImage,,,,,,,2.7776,0.125,b,bonzo,001,2021-01-15_16h50.07.313,choiceRTT,3.1.3,60,1,0,40,34,1,39
,0,-0.119248218,-0.028839922,1,0,0,targImage,,,,,,,1.8888,-0.125,v,bonzo,001,2021-01-15_16h50.07.313,choiceRTT,3.1.3,60,1,0,40,17,1,39
,0,-0.132858069,-0.013285807,1,0,0,targImage,,,,,,,2.7776,-0.125,v,bonzo,001,2021-01-15_16h50.07.313,choiceRTT,3.1.3,60,1,0,40,33,1,39
,0,-0.132209981,-0.013285807,1,0,0,targImage,,,,,,,1,-0.125,v,bonzo,001,2021-01-15_16h50.07.313,choiceRTT,3.1.3,60,1,0,40,1,1,39
,0,-0.114063513,0.000324044,1,0,0,targImage,,,,,,,2.9998,-0.125,v,bonzo,001,2021-01-15_16h50.07.313,choiceRTT,3.1.3,60,1,0,40,37,1,39
,0,0.145819831,-0.032728451,1,0,0,targImage,,,,,,,1.8888,0.125,b,bonzo,001,2021-01-15_16h50.07.313,choiceRTT,3.1.3,60,1,0,40,18,1,39
,0,-0.416720674,-0.022359041,1,0,0,targImage,,,,,,,1.4444,-0.375,c,bonzo,001,2021-01-15_16h50.07.313,choiceRTT,3.1.3,60,1,0,40,8,1,39
