response.keys,response.corr,mouseResp.x,mouseResp.y,mouseResp.leftButton,mouseResp.midButton,mouseResp.rightButton,mouseResp.clicked_name,practiceTrials.thisRepN,practiceTrials.thisTrialN,practiceTrials.thisN,practiceTrials.thisIndex,practiceTrials.ran,practiceTrials.order,isi,xPos,corrAns,participant,session,date,expName,psychopyVersion,frameRate,mainTrials.thisRepN,mainTrials.thisTrialN,mainTrials.thisN,mainTrials.thisIndex,mainTrials.ran,mainTrials.order
,0,0.116210938,0.040039063,1,0,0,targImage,1,0,8,2,1,7,1,0.125,b,cb,001,2021-02-02_13h47.04.083,choiceRTT,3.1.3,60,,,,,,
,0,0.422851563,-0.005859375,1,0,0,targImage,1,0,8,7,1,7,1,0.375,n,cb,001,2021-02-02_13h47.04.083,choiceRTT,3.1.3,60,,,,,,
,0,-0.154296875,-0.032226563,1,0,0,targImage,1,0,8,1,1,7,1,-0.125,v,cb,001,2021-02-02_13h47.04.083,choiceRTT,3.1.3,60,,,,,,
,0,-0.36328125,0.032226563,1,0,0,targImage,1,0,8,4,1,7,1,-0.375,c,cb,001,2021-02-02_13h47.04.083,choiceRTT,3.1.3,60,,,,,,
,0,-0.354492188,-0.041015625,1,0,0,targImage,1,0,8,0,1,7,1,-0.375,c,cb,001,2021-02-02_13h47.04.083,choiceRTT,3.1.3,60,,,,,,
,0,-0.135742188,-0.055664063,1,0,0,targImage,1,0,8,5,1,7,1,-0.125,v,cb,001,2021-02-02_13h47.04.083,choiceRTT,3.1.3,60,,,,,,
,0,0.09765625,0.004882813,1,0,0,targImage,1,0,8,6,1,7,1,0.125,b,cb,001,2021-02-02_13h47.04.083,choiceRTT,3.1.3,60,,,,,,
,0,0.380859375,0.038085938,1,0,0,targImage,1,0,8,3,1,7,1,0.375,n,cb,001,2021-02-02_13h47.04.083,choiceRTT,3.1.3,60,,,,,,
,0,-0.358398438,0.059570313,1,0,0,targImage,,,,,,,1.4444,-0.375,c,cb,001,2021-02-02_13h47.04.083,choiceRTT,3.1.3,60,1,0,40,8,1,39
,0,-0.314453125,0.0078125,1,0,0,targImage,,,,,,,1.8888,-0.375,c,cb,001,2021-02-02_13h47.04.083,choiceRTT,3.1.3,60,1,0,40,16,1,39
,0,-0.390625,0.059570313,1,0,0,targImage,,,,,,,2.5554,-0.375,c,cb,001,2021-02-02_13h47.04.083,choiceRTT,3.1.3,60,1,0,40,28,1,39
,0,0.448242188,0.017578125,1,0,0,targImage,,,,,,,1.2222,0.375,n,cb,001,2021-02-02_13h47.04.083,choiceRTT,3.1.3,60,1,0,40,7,1,39
,0,-0.358398438,-0.0234375,1,0,0,targImage,,,,,,,2.9998,-0.375,c,cb,001,2021-02-02_13h47.04.083,choiceRTT,3.1.3,60,1,0,40,36,1,39
,0,0.151367188,-0.022460938,1,0,0,targImage,,,,,,,2.7776,0.125,b,cb,001,2021-02-02_13h47.04.083,choiceRTT,3.1.3,60,1,0,40,34,1,39
,0,-0.081054688,-0.018554688,1,0,0,targImage,,,,,,,2.9998,-0.125,v,cb,001,2021-02-02_13h47.04.083,choiceRTT,3.1.3,60,1,0,40,37,1,39
,0,0.201171875,0.020507813,1,0,0,targImage,,,,,,,2.5554,0.125,b,cb,001,2021-02-02_13h47.04.083,choiceRTT,3.1.3,60,1,0,40,30,1,39
,0,-0.14453125,0.008789063,1,0,0,targImage,,,,,,,2.7776,-0.125,v,cb,001,2021-02-02_13h47.04.083,choiceRTT,3.1.3,60,1,0,40,33,1,39
,0,0.09765625,0.012695313,1,0,0,targImage,,,,,,,2.9998,0.125,b,cb,001,2021-02-02_13h47.04.083,choiceRTT,3.1.3,60,1,0,40,38,1,39
,0,-0.372070313,-0.0078125,1,0,0,targImage,,,,,,,2.3332,-0.375,c,cb,001,2021-02-02_13h47.04.083,choiceRTT,3.1.3,60,1,0,40,24,1,39
,0,0.412109375,-0.0859375,1,0,0,targImage,,,,,,,2.5554,0.375,n,cb,001,2021-02-02_13h47.04.083,choiceRTT,3.1.3,60,1,0,40,31,1,39
,0,-0.083007813,-0.04296875,1,0,0,targImage,,,,,,,1,-0.125,v,cb,001,2021-02-02_13h47.04.083,choiceRTT,3.1.3,60,1,0,40,1,1,39
,0,0.135742188,-0.036132813,1,0,0,targImage,,,,,,,2.111,0.125,b,cb,001,2021-02-02_13h47.04.083,choiceRTT,3.1.3,60,1,0,40,22,1,39
,0,0.086914063,-0.061523438,1,0,0,targImage,,,,,,,1.2222,0.125,b,cb,001,2021-02-02_13h47.04.083,choiceRTT,3.1.3,60,1,0,40,6,1,39
,0,0.3125,-0.077148438,1,0,0,targImage,,,,,,,2.111,0.375,n,cb,001,2021-02-02_13h47.04.083,choiceRTT,3.1.3,60,1,0,40,23,1,39
,0,0.448242188,-0.017578125,1,0,0,targImage,,,,,,,1.6666,0.375,n,cb,001,2021-02-02_13h47.04.083,choiceRTT,3.1.3,60,1,0,40,15,1,39
,0,-0.08984375,-0.022460938,1,0,0,targImage,,,,,,,2.111,-0.125,v,cb,001,2021-02-02_13h47.04.083,choiceRTT,3.1.3,60,1,0,40,21,1,39
,0,0.3203125,-0.033203125,1,0,0,targImage,,,,,,,2.3332,0.375,n,cb,001,2021-02-02_13h47.04.083,choiceRTT,3.1.3,60,1,0,40,27,1,39
,0,0.443359375,0.040039063,1,0,0,targImage,,,,,,,2.9998,0.375,n,cb,001,2021-02-02_13h47.04.083,choiceRTT,3.1.3,60,1,0,40,39,1,39
,0,-0.09765625,-0.021484375,1,0,0,targImage,,,,,,,2.3332,-0.125,v,cb,001,2021-02-02_13h47.04.083,choiceRTT,3.1.3,60,1,0,40,25,1,39
,0,-0.109375,-0.047851563,1,0,0,targImage,,,,,,,1.4444,-0.125,v,cb,001,2021-02-02_13h47.04.083,choiceRTT,3.1.3,60,1,0,40,9,1,39
,0,0.057617188,-0.009765625,1,0,0,targImage,,,,,,,1.6666,0.125,b,cb,001,2021-02-02_13h47.04.083,choiceRTT,3.1.3,60,1,0,40,14,1,39
,0,-0.331054688,0.021484375,1,0,0,targImage,,,,,,,2.7776,-0.375,c,cb,001,2021-02-02_13h47.04.083,choiceRTT,3.1.3,60,1,0,40,32,1,39
,0,0.431640625,-0.03515625,1,0,0,targImage,,,,,,,1.4444,0.375,n,cb,001,2021-02-02_13h47.04.083,choiceRTT,3.1.3,60,1,0,40,11,1,39
,0,0.288085938,0.01171875,1,0,0,targImage,,,,,,,2.7776,0.375,n,cb,001,2021-02-02_13h47.04.083,choiceRTT,3.1.3,60,1,0,40,35,1,39
,0,0.08203125,-0.021484375,1,0,0,targImage,,,,,,,2.3332,0.125,b,cb,001,2021-02-02_13h47.04.083,choiceRTT,3.1.3,60,1,0,40,26,1,39
,0,-0.157226563,-0.006835938,1,0,0,targImage,,,,,,,2.5554,-0.125,v,cb,001,2021-02-02_13h47.04.083,choiceRTT,3.1.3,60,1,0,40,29,1,39
,0,-0.131835938,-0.010742188,1,0,0,targImage,,,,,,,1.6666,-0.125,v,cb,001,2021-02-02_13h47.04.083,choiceRTT,3.1.3,60,1,0,40,13,1,39
,0,-0.346679688,-0.00390625,1,0,0,targImage,,,,,,,1.6666,-0.375,c,cb,001,2021-02-02_13h47.04.083,choiceRTT,3.1.3,60,1,0,40,12,1,39
,0,0.396484375,-0.028320313,1,0,0,targImage,,,,,,,1,0.375,n,cb,001,2021-02-02_13h47.04.083,choiceRTT,3.1.3,60,1,0,40,3,1,39
,0,-0.307617188,0.004882813,1,0,0,targImage,,,,,,,1.2222,-0.375,c,cb,001,2021-02-02_13h47.04.083,choiceRTT,3.1.3,60,1,0,40,4,1,39
,0,0.084960938,-0.013671875,1,0,0,targImage,,,,,,,1,0.125,b,cb,001,2021-02-02_13h47.04.083,choiceRTT,3.1.3,60,1,0,40,2,1,39
,0,0.155273438,-0.022460938,1,0,0,targImage,,,,,,,1.8888,0.125,b,cb,001,2021-02-02_13h47.04.083,choiceRTT,3.1.3,60,1,0,40,18,1,39
,0,-0.14453125,0.009765625,1,0,0,targImage,,,,,,,1.2222,-0.125,v,cb,001,2021-02-02_13h47.04.083,choiceRTT,3.1.3,60,1,0,40,5,1,39
,0,-0.077148438,-0.016601563,1,0,0,targImage,,,,,,,1.8888,-0.125,v,cb,001,2021-02-02_13h47.04.083,choiceRTT,3.1.3,60,1,0,40,17,1,39
,0,0.104492188,0.014648438,1,0,0,targImage,,,,,,,1.4444,0.125,b,cb,001,2021-02-02_13h47.04.083,choiceRTT,3.1.3,60,1,0,40,10,1,39
,0,-0.278320313,-0.053710938,1,0,0,targImage,,,,,,,2.111,-0.375,c,cb,001,2021-02-02_13h47.04.083,choiceRTT,3.1.3,60,1,0,40,20,1,39
,0,0.311523438,-0.06640625,1,0,0,targImage,,,,,,,1.8888,0.375,n,cb,001,2021-02-02_13h47.04.083,choiceRTT,3.1.3,60,1,0,40,19,1,39
,0,-0.298828125,0.0234375,1,0,0,targImage,,,,,,,1,-0.375,c,cb,001,2021-02-02_13h47.04.083,choiceRTT,3.1.3,60,1,0,40,0,1,39
