participant,session,date,expName,psychopyVersion,OS,frameRate,keyResp.keys,keyResp.corr,keyResp.rt,keyResp.duration,mouseResp.x,mouseResp.y,mouseResp.leftButton,mouseResp.midButton,mouseResp.rightButton,mouseResp.time,mouseResp.clicked_name,trialRespTimes,moveOnKeys.keys,PracticeLoop.thisRepN,PracticeLoop.thisTrialN,PracticeLoop.thisN,PracticeLoop.thisIndex,PracticeLoop.ran,onsetTime,thisImage,key_resp.keys,mouse.x,mouse.y,mouse.leftButton,mouse.midButton,mouse.rightButton,ExptLoop.thisRepN,ExptLoop.thisTrialN,ExptLoop.thisN,ExptLoop.thisIndex,ExptLoop.ran
,001,2023-08-12_01h03.23.951,choiceRTT,2023.1.3,Win32,72.15007215,,,,,,,,,,,,,,,,,,,,,,,,,,,,,,,
,001,2023-08-12_01h03.23.951,choiceRTT,2023.1.3,Win32,72.15007215,v,1,0.6907,,,,,,,,,-0.4093,,0,0,0,5,1,1.1,images/target_square.jpg,,,,,,,,,,,
,001,2023-08-12_01h03.23.951,choiceRTT,2023.1.3,Win32,72.15007215,b,1,4.2015,,,,,,,,,2.7015,,0,1,1,4,1,1.5,images/target_plus.jpg,,,,,,,,,,,
,001,2023-08-12_01h03.23.951,choiceRTT,2023.1.3,Win32,72.15007215,v,1,2.7268,,,,,,,,,1.4268,,0,2,2,8,1,1.3,images/target_square.jpg,,,,,,,,,,,
,001,2023-08-12_01h03.23.951,choiceRTT,2023.1.3,Win32,72.15007215,v,1,2.4568,,,,,,,,,0.9568,,0,3,3,2,1,1.5,images/target_square.jpg,,,,,,,,,,,
,001,2023-08-12_01h03.23.951,choiceRTT,2023.1.3,Win32,72.15007215,b,1,1.8028,,,,,,,,,0.5028,,0,4,4,1,1,1.3,images/target_plus.jpg,,,,,,,,,,,
,001,2023-08-12_01h03.23.951,choiceRTT,2023.1.3,Win32,72.15007215,c,1,2.169,,,,,,,,,0.869,,0,5,5,3,1,1.3,images/target_cross.jpg,,,,,,,,,,,
,001,2023-08-12_01h03.23.951,choiceRTT,2023.1.3,Win32,72.15007215,c,1,1.6868,,,,,,,,,0.5868,,0,6,6,0,1,1.1,images/target_cross.jpg,,,,,,,,,,,
,001,2023-08-12_01h03.23.951,choiceRTT,2023.1.3,Win32,72.15007215,b,1,1.8932,,,,,,,,,0.7932,,0,7,7,7,1,1.1,images/target_plus.jpg,,,,,,,,,,,
,001,2023-08-12_01h03.23.951,choiceRTT,2023.1.3,Win32,72.15007215,c,1,2.2246,,,,,,,,,0.7246,,0,8,8,6,1,1.5,images/target_cross.jpg,,,,,,,,,,,
,001,2023-08-12_01h03.23.951,choiceRTT,2023.1.3,Win32,72.15007215,,,,,,,,,,,,,,,,,,,,,,0.007407407,-0.256481481,1,0,0,,,,,
,001,2023-08-12_01h03.23.951,choiceRTT,2023.1.3,Win32,72.15007215,v,1,2.4773,,,,,,,,,1.1773,,,,,,,1.3,images/target_square.jpg,,,,,,,0,0,0,8,1
,001,2023-08-12_01h03.23.951,choiceRTT,2023.1.3,Win32,72.15007215,v,1,1.9108,,,,,,,,,0.8108,,,,,,,1.1,images/target_square.jpg,,,,,,,0,1,1,5,1
,001,2023-08-12_01h03.23.951,choiceRTT,2023.1.3,Win32,72.15007215,v,1,2.0873,,,,,,,,,0.5873,,,,,,,1.5,images/target_square.jpg,,,,,,,0,2,2,2,1
,001,2023-08-12_01h03.23.951,choiceRTT,2023.1.3,Win32,72.15007215,c,1,2.0528,,,,,,,,,0.9528,,,,,,,1.1,images/target_cross.jpg,,,,,,,0,3,3,0,1
,001,2023-08-12_01h03.23.951,choiceRTT,2023.1.3,Win32,72.15007215,b,1,1.9592,,,,,,,,,0.6592,,,,,,,1.3,images/target_plus.jpg,,,,,,,0,4,4,1,1
,001,2023-08-12_01h03.23.951,choiceRTT,2023.1.3,Win32,72.15007215,b,1,1.7323,,,,,,,,,0.6323,,,,,,,1.1,images/target_plus.jpg,,,,,,,0,5,5,7,1
,001,2023-08-12_01h03.23.951,choiceRTT,2023.1.3,Win32,72.15007215,c,1,2.359,,,,,,,,,0.859,,,,,,,1.5,images/target_cross.jpg,,,,,,,0,6,6,6,1
,001,2023-08-12_01h03.23.951,choiceRTT,2023.1.3,Win32,72.15007215,b,1,2.666,,,,,,,,,1.166,,,,,,,1.5,images/target_plus.jpg,,,,,,,0,7,7,4,1
,001,2023-08-12_01h03.23.951,choiceRTT,2023.1.3,Win32,72.15007215,c,1,3.1198,,,,,,,,,1.8198,,,,,,,1.3,images/target_cross.jpg,,,,,,,0,8,8,3,1
,001,2023-08-12_01h03.23.951,choiceRTT,2023.1.3,Win32,72.15007215,v,1,1.9554,,,,,,,,,0.8554,,,,,,,1.1,images/target_square.jpg,,,,,,,1,0,9,5,1
,001,2023-08-12_01h03.23.951,choiceRTT,2023.1.3,Win32,72.15007215,b,1,1.8654,,,,,,,,,0.7654,,,,,,,1.1,images/target_plus.jpg,,,,,,,1,1,10,7,1
,001,2023-08-12_01h03.23.951,choiceRTT,2023.1.3,Win32,72.15007215,v,1,1.9328,,,,,,,,,0.6328,,,,,,,1.3,images/target_square.jpg,,,,,,,1,2,11,8,1
,001,2023-08-12_01h03.23.951,choiceRTT,2023.1.3,Win32,72.15007215,c,1,2.2388,,,,,,,,,0.9388,,,,,,,1.3,images/target_cross.jpg,,,,,,,1,3,12,3,1
,001,2023-08-12_01h03.23.951,choiceRTT,2023.1.3,Win32,72.15007215,b,1,2.2929,,,,,,,,,0.7929,,,,,,,1.5,images/target_plus.jpg,,,,,,,1,4,13,4,1
,001,2023-08-12_01h03.23.951,choiceRTT,2023.1.3,Win32,72.15007215,c,1,3.0127,,,,,,,,,1.5127,,,,,,,1.5,images/target_cross.jpg,,,,,,,1,5,14,6,1
,001,2023-08-12_01h03.23.951,choiceRTT,2023.1.3,Win32,72.15007215,c,1,1.7062,,,,,,,,,0.6062,,,,,,,1.1,images/target_cross.jpg,,,,,,,1,6,15,0,1
,001,2023-08-12_01h03.23.951,choiceRTT,2023.1.3,Win32,72.15007215,b,1,2.1732,,,,,,,,,0.8732,,,,,,,1.3,images/target_plus.jpg,,,,,,,1,7,16,1,1
,001,2023-08-12_01h03.23.951,choiceRTT,2023.1.3,Win32,72.15007215,v,1,2.1711,,,,,,,,,0.6711,,,,,,,1.5,images/target_square.jpg,,,,,,,1,8,17,2,1
,001,2023-08-12_01h03.23.951,choiceRTT,2023.1.3,Win32,72.15007215,,,,,,,,,,,,,,,,,,,,,,,,,,,,,,,
