participant,session,date,expName,psychopyVersion,OS,frameRate,keyResp.keys,keyResp.corr,keyResp.rt,keyResp.duration,mouseResp.x,mouseResp.y,mouseResp.leftButton,mouseResp.midButton,mouseResp.rightButton,mouseResp.time,mouseResp.clicked_name,trialRespTimes,moveOnKeys.keys,moveOnKeys.rt,moveOnKeys.duration,PracticeLoop.thisRepN,PracticeLoop.thisTrialN,PracticeLoop.thisN,PracticeLoop.thisIndex,PracticeLoop.ran,onsetTime,thisImage,key_resp.keys,key_resp.rt,key_resp.duration,mouse.x,mouse.y,mouse.leftButton,mouse.midButton,mouse.rightButton,ExptLoop.thisRepN,ExptLoop.thisTrialN,ExptLoop.thisN,ExptLoop.thisIndex,ExptLoop.ran
,001,2024-01-27_19h48.44.493,choiceRTT,2023.1.3,Win32,58.82352941,,,,,,,,,,,,,,,,,,,,,,,,,,,,,,,,,,,
,001,2024-01-27_19h48.44.493,choiceRTT,2023.1.3,Win32,58.82352941,c,0,3.057,,,,,,,,,1.957,space,12.5147,,0,0,0,7,1,1.1,images/target_plus.jpg,,,,,,,,,,,,,
,001,2024-01-27_19h48.44.493,choiceRTT,2023.1.3,Win32,58.82352941,c,1,2.1626,,,,,,,,,1.0626,space,14.4134,,0,1,1,0,1,1.1,images/target_cross.jpg,,,,,,,,,,,,,
,001,2024-01-27_19h48.44.493,choiceRTT,2023.1.3,Win32,58.82352941,b,1,2.273,,,,,,,,,0.773,space,5.1347,,0,2,2,4,1,1.5,images/target_plus.jpg,,,,,,,,,,,,,
,001,2024-01-27_19h48.44.493,choiceRTT,2023.1.3,Win32,58.82352941,c,1,1.9359,,,,,,,,,0.4359,space,4.1636,,0,3,3,6,1,1.5,images/target_cross.jpg,,,,,,,,,,,,,
,001,2024-01-27_19h48.44.493,choiceRTT,2023.1.3,Win32,58.82352941,b,0,1.7144,,,,,,,,,0.4144,space,1.79,,0,4,4,3,1,1.3,images/target_cross.jpg,,,,,,,,,,,,,
,001,2024-01-27_19h48.44.493,choiceRTT,2023.1.3,Win32,58.82352941,b,1,1.9345,,,,,,,,,0.6345,space,5.6493,,0,5,5,1,1,1.3,images/target_plus.jpg,,,,,,,,,,,,,
,001,2024-01-27_19h48.44.493,choiceRTT,2023.1.3,Win32,58.82352941,c,0,2.1478,,,,,,,,,0.6478,space,1.3386,,0,6,6,2,1,1.5,images/target_square.jpg,,,,,,,,,,,,,
,001,2024-01-27_19h48.44.493,choiceRTT,2023.1.3,Win32,58.82352941,v,1,1.7983,,,,,,,,,0.4983,space,2.0971,,0,7,7,8,1,1.3,images/target_square.jpg,,,,,,,,,,,,,
,001,2024-01-27_19h48.44.493,choiceRTT,2023.1.3,Win32,58.82352941,v,1,1.6732,,,,,,,,,0.5732,space,1.7365,,0,8,8,5,1,1.1,images/target_square.jpg,,,,,,,,,,,,,
,001,2024-01-27_19h48.44.493,choiceRTT,2023.1.3,Win32,58.82352941,,,,,,,,,,,,,,,,,,,,,,,space,3.2164,,-0.567708333,-0.067708333,0,0,0,,,,,
,001,2024-01-27_19h48.44.493,choiceRTT,2023.1.3,Win32,58.82352941,c,1,1.59,,,,,,,,,0.49,,,,,,,,,1.1,images/target_cross.jpg,,,,,,,,,0,0,0,0,1
,001,2024-01-27_19h48.44.493,choiceRTT,2023.1.3,Win32,58.82352941,v,1,2.1921,,,,,,,,,0.6921,,,,,,,,,1.5,images/target_square.jpg,,,,,,,,,0,1,1,2,1
,001,2024-01-27_19h48.44.493,choiceRTT,2023.1.3,Win32,58.82352941,v,1,1.9551,,,,,,,,,0.6551,,,,,,,,,1.3,images/target_square.jpg,,,,,,,,,0,2,2,8,1
,001,2024-01-27_19h48.44.493,choiceRTT,2023.1.3,Win32,58.82352941,b,1,1.8751,,,,,,,,,0.7751,,,,,,,,,1.1,images/target_plus.jpg,,,,,,,,,0,3,3,7,1
,001,2024-01-27_19h48.44.493,choiceRTT,2023.1.3,Win32,58.82352941,v,0,1.79,,,,,,,,,0.49,,,,,,,,,1.3,images/target_plus.jpg,,,,,,,,,0,4,4,1,1
,001,2024-01-27_19h48.44.493,choiceRTT,2023.1.3,Win32,58.82352941,v,1,1.6615,,,,,,,,,0.5615,,,,,,,,,1.1,images/target_square.jpg,,,,,,,,,0,5,5,5,1
,001,2024-01-27_19h48.44.493,choiceRTT,2023.1.3,Win32,58.82352941,b,1,1.9731,,,,,,,,,0.4731,,,,,,,,,1.5,images/target_plus.jpg,,,,,,,,,0,6,6,4,1
,001,2024-01-27_19h48.44.493,choiceRTT,2023.1.3,Win32,58.82352941,c,1,2.0209,,,,,,,,,0.5209,,,,,,,,,1.5,images/target_cross.jpg,,,,,,,,,0,7,7,6,1
,001,2024-01-27_19h48.44.493,choiceRTT,2023.1.3,Win32,58.82352941,c,1,1.9312,,,,,,,,,0.6312,,,,,,,,,1.3,images/target_cross.jpg,,,,,,,,,0,8,8,3,1
,001,2024-01-27_19h48.44.493,choiceRTT,2023.1.3,Win32,58.82352941,v,1,1.7977,,,,,,,,,0.6977,,,,,,,,,1.1,images/target_square.jpg,,,,,,,,,1,0,9,5,1
,001,2024-01-27_19h48.44.493,choiceRTT,2023.1.3,Win32,58.82352941,v,1,2.0724,,,,,,,,,0.5724,,,,,,,,,1.5,images/target_square.jpg,,,,,,,,,1,1,10,2,1
,001,2024-01-27_19h48.44.493,choiceRTT,2023.1.3,Win32,58.82352941,v,1,1.7212,,,,,,,,,0.4212,,,,,,,,,1.3,images/target_square.jpg,,,,,,,,,1,2,11,8,1
,001,2024-01-27_19h48.44.493,choiceRTT,2023.1.3,Win32,58.82352941,b,1,2.0708,,,,,,,,,0.5708,,,,,,,,,1.5,images/target_plus.jpg,,,,,,,,,1,3,12,4,1
,001,2024-01-27_19h48.44.493,choiceRTT,2023.1.3,Win32,58.82352941,c,1,1.699,,,,,,,,,0.399,,,,,,,,,1.3,images/target_cross.jpg,,,,,,,,,1,4,13,3,1
,001,2024-01-27_19h48.44.493,choiceRTT,2023.1.3,Win32,58.82352941,c,1,1.5573,,,,,,,,,0.4573,,,,,,,,,1.1,images/target_cross.jpg,,,,,,,,,1,5,14,0,1
,001,2024-01-27_19h48.44.493,choiceRTT,2023.1.3,Win32,58.82352941,b,1,1.8729,,,,,,,,,0.5729,,,,,,,,,1.3,images/target_plus.jpg,,,,,,,,,1,6,15,1,1
,001,2024-01-27_19h48.44.493,choiceRTT,2023.1.3,Win32,58.82352941,b,1,1.5784,,,,,,,,,0.4784,,,,,,,,,1.1,images/target_plus.jpg,,,,,,,,,1,7,16,7,1
,001,2024-01-27_19h48.44.493,choiceRTT,2023.1.3,Win32,58.82352941,c,1,2.1041,,,,,,,,,0.6041,,,,,,,,,1.5,images/target_cross.jpg,,,,,,,,,1,8,17,6,1
,001,2024-01-27_19h48.44.493,choiceRTT,2023.1.3,Win32,58.82352941,,,,,,,,,,,,,,,,,,,,,,,,,,,,,,,,,,,
