response.keys,response.corr,mouseResp.x,mouseResp.y,mouseResp.leftButton,mouseResp.midButton,mouseResp.rightButton,mouseResp.clicked_name,practiceTrials.thisRepN,practiceTrials.thisTrialN,practiceTrials.thisN,practiceTrials.thisIndex,practiceTrials.ran,practiceTrials.order,isi,xPos,corrAns,participant,session,date,expName,psychopyVersion,frameRate,mainTrials.thisRepN,mainTrials.thisTrialN,mainTrials.thisN,mainTrials.thisIndex,mainTrials.ran,mainTrials.order
,0,-0.332,-0.0415,1,0,0,targImage,1,0,8,4,1,7,1,-0.375,c,Chris,001,2020-03-21_21h01.00.427,choiceRTT,3.1.3,60,,,,,,
,0,0.3965,0.0215,1,0,0,targImage,1,0,8,7,1,7,1,0.375,n,Chris,001,2020-03-21_21h01.00.427,choiceRTT,3.1.3,60,,,,,,
,0,-0.4335,0.005,1,0,0,targImage,1,0,8,0,1,7,1,-0.375,c,Chris,001,2020-03-21_21h01.00.427,choiceRTT,3.1.3,60,,,,,,
,0,-0.1615,-0.005,1,0,0,targImage,1,0,8,5,1,7,1,-0.125,v,Chris,001,2020-03-21_21h01.00.427,choiceRTT,3.1.3,60,,,,,,
,0,0.1235,0.0055,1,0,0,targImage,1,0,8,6,1,7,1,0.125,b,Chris,001,2020-03-21_21h01.00.427,choiceRTT,3.1.3,60,,,,,,
,0,-0.12,0.0145,1,0,0,targImage,1,0,8,1,1,7,1,-0.125,v,Chris,001,2020-03-21_21h01.00.427,choiceRTT,3.1.3,60,,,,,,
,0,0.337,0.022,1,0,0,targImage,1,0,8,3,1,7,1,0.375,n,Chris,001,2020-03-21_21h01.00.427,choiceRTT,3.1.3,60,,,,,,
,0,0.103,-0.0045,1,0,0,targImage,1,0,8,2,1,7,1,0.125,b,Chris,001,2020-03-21_21h01.00.427,choiceRTT,3.1.3,60,,,,,,
,0,-0.327,-0.0055,1,0,0,targImage,,,,,,,2.3332,-0.375,c,Chris,001,2020-03-21_21h01.00.427,choiceRTT,3.1.3,60,1,0,40,24,1,39
,0,-0.138,-0.01,1,0,0,targImage,,,,,,,1.2222,-0.125,v,Chris,001,2020-03-21_21h01.00.427,choiceRTT,3.1.3,60,1,0,40,5,1,39
,0,0.1015,-0.002,1,0,0,targImage,,,,,,,1.4444,0.125,b,Chris,001,2020-03-21_21h01.00.427,choiceRTT,3.1.3,60,1,0,40,10,1,39
,0,-0.082,-0.001,1,0,0,targImage,,,,,,,2.5554,-0.125,v,Chris,001,2020-03-21_21h01.00.427,choiceRTT,3.1.3,60,1,0,40,29,1,39
,0,0.04,0.0025,1,0,0,targImage,,,,,,,2.9998,0.125,b,Chris,001,2020-03-21_21h01.00.427,choiceRTT,3.1.3,60,1,0,40,38,1,39
,0,-0.3775,-0.001,1,0,0,targImage,,,,,,,1.2222,-0.375,c,Chris,001,2020-03-21_21h01.00.427,choiceRTT,3.1.3,60,1,0,40,4,1,39
,0,0.126,0.002,1,0,0,targImage,,,,,,,1.6666,0.125,b,Chris,001,2020-03-21_21h01.00.427,choiceRTT,3.1.3,60,1,0,40,14,1,39
,0,-0.1435,-0.002,1,0,0,targImage,,,,,,,1.8888,-0.125,v,Chris,001,2020-03-21_21h01.00.427,choiceRTT,3.1.3,60,1,0,40,17,1,39
,0,0.4055,-0.015,1,0,0,targImage,,,,,,,2.9998,0.375,n,Chris,001,2020-03-21_21h01.00.427,choiceRTT,3.1.3,60,1,0,40,39,1,39
,0,0.3925,-0.009,1,0,0,targImage,,,,,,,1.6666,0.375,n,Chris,001,2020-03-21_21h01.00.427,choiceRTT,3.1.3,60,1,0,40,15,1,39
,0,-0.37,-0.0065,1,0,0,targImage,,,,,,,2.7776,-0.375,c,Chris,001,2020-03-21_21h01.00.427,choiceRTT,3.1.3,60,1,0,40,32,1,39
,0,0.4195,0.0345,1,0,0,targImage,,,,,,,1.8888,0.375,n,Chris,001,2020-03-21_21h01.00.427,choiceRTT,3.1.3,60,1,0,40,19,1,39
,0,-0.4,-0.003,1,0,0,targImage,,,,,,,1.8888,-0.375,c,Chris,001,2020-03-21_21h01.00.427,choiceRTT,3.1.3,60,1,0,40,16,1,39
,0,-0.1155,-0.0025,1,0,0,targImage,,,,,,,2.111,-0.125,v,Chris,001,2020-03-21_21h01.00.427,choiceRTT,3.1.3,60,1,0,40,21,1,39
,0,-0.4385,-0.0015,1,0,0,targImage,,,,,,,2.111,-0.375,c,Chris,001,2020-03-21_21h01.00.427,choiceRTT,3.1.3,60,1,0,40,20,1,39
,0,0.116,-0.002,1,0,0,targImage,,,,,,,1.2222,0.125,b,Chris,001,2020-03-21_21h01.00.427,choiceRTT,3.1.3,60,1,0,40,6,1,39
,0,0.346,0.021,1,0,0,targImage,,,,,,,2.5554,0.375,n,Chris,001,2020-03-21_21h01.00.427,choiceRTT,3.1.3,60,1,0,40,31,1,39
,0,0.142,0,1,0,0,targImage,,,,,,,1.8888,0.125,b,Chris,001,2020-03-21_21h01.00.427,choiceRTT,3.1.3,60,1,0,40,18,1,39
,0,0.105,-0.0095,1,0,0,targImage,,,,,,,2.7776,0.125,b,Chris,001,2020-03-21_21h01.00.427,choiceRTT,3.1.3,60,1,0,40,34,1,39
,0,0.131,0,1,0,0,targImage,,,,,,,2.3332,0.125,b,Chris,001,2020-03-21_21h01.00.427,choiceRTT,3.1.3,60,1,0,40,26,1,39
,0,0.334,-0.003,1,0,0,targImage,,,,,,,1.2222,0.375,n,Chris,001,2020-03-21_21h01.00.427,choiceRTT,3.1.3,60,1,0,40,7,1,39
,0,-0.3135,0.006,1,0,0,targImage,,,,,,,2.5554,-0.375,c,Chris,001,2020-03-21_21h01.00.427,choiceRTT,3.1.3,60,1,0,40,28,1,39
,0,0.125,0.005,1,0,0,targImage,,,,,,,1,0.125,b,Chris,001,2020-03-21_21h01.00.427,choiceRTT,3.1.3,60,1,0,40,2,1,39
,0,-0.132,-0.011,1,0,0,targImage,,,,,,,1,-0.125,v,Chris,001,2020-03-21_21h01.00.427,choiceRTT,3.1.3,60,1,0,40,1,1,39
,0,-0.092,0.0045,1,0,0,targImage,,,,,,,1.6666,-0.125,v,Chris,001,2020-03-21_21h01.00.427,choiceRTT,3.1.3,60,1,0,40,13,1,39
,0,0.1355,-0.006,1,0,0,targImage,,,,,,,2.111,0.125,b,Chris,001,2020-03-21_21h01.00.427,choiceRTT,3.1.3,60,1,0,40,22,1,39
,0,-0.0855,-0.0065,1,0,0,targImage,,,,,,,1.4444,-0.125,v,Chris,001,2020-03-21_21h01.00.427,choiceRTT,3.1.3,60,1,0,40,9,1,39
,0,0.37,-0.007,1,0,0,targImage,,,,,,,1,0.375,n,Chris,001,2020-03-21_21h01.00.427,choiceRTT,3.1.3,60,1,0,40,3,1,39
,0,-0.329,-0.011,1,0,0,targImage,,,,,,,1,-0.375,c,Chris,001,2020-03-21_21h01.00.427,choiceRTT,3.1.3,60,1,0,40,0,1,39
,0,0.3955,0.052,1,0,0,targImage,,,,,,,1.4444,0.375,n,Chris,001,2020-03-21_21h01.00.427,choiceRTT,3.1.3,60,1,0,40,11,1,39
,0,-0.4065,0.0205,1,0,0,targImage,,,,,,,1.4444,-0.375,c,Chris,001,2020-03-21_21h01.00.427,choiceRTT,3.1.3,60,1,0,40,8,1,39
,0,0.057,0.0045,1,0,0,targImage,,,,,,,2.5554,0.125,b,Chris,001,2020-03-21_21h01.00.427,choiceRTT,3.1.3,60,1,0,40,30,1,39
,0,-0.142,0.0025,1,0,0,targImage,,,,,,,2.9998,-0.125,v,Chris,001,2020-03-21_21h01.00.427,choiceRTT,3.1.3,60,1,0,40,37,1,39
,0,-0.4045,-0.004,1,0,0,targImage,,,,,,,1.6666,-0.375,c,Chris,001,2020-03-21_21h01.00.427,choiceRTT,3.1.3,60,1,0,40,12,1,39
,0,0.366,-0.002,1,0,0,targImage,,,,,,,2.3332,0.375,n,Chris,001,2020-03-21_21h01.00.427,choiceRTT,3.1.3,60,1,0,40,27,1,39
,0,-0.0645,0.002,1,0,0,targImage,,,,,,,2.7776,-0.125,v,Chris,001,2020-03-21_21h01.00.427,choiceRTT,3.1.3,60,1,0,40,33,1,39
,0,-0.354,0.005,1,0,0,targImage,,,,,,,2.9998,-0.375,c,Chris,001,2020-03-21_21h01.00.427,choiceRTT,3.1.3,60,1,0,40,36,1,39
,0,-0.108,0.002,1,0,0,targImage,,,,,,,2.3332,-0.125,v,Chris,001,2020-03-21_21h01.00.427,choiceRTT,3.1.3,60,1,0,40,25,1,39
,0,0.409,0.005,1,0,0,targImage,,,,,,,2.7776,0.375,n,Chris,001,2020-03-21_21h01.00.427,choiceRTT,3.1.3,60,1,0,40,35,1,39
,0,0.358,0.0065,1,0,0,targImage,,,,,,,2.111,0.375,n,Chris,001,2020-03-21_21h01.00.427,choiceRTT,3.1.3,60,1,0,40,23,1,39
