response.keys,response.corr,mouseResp.x,mouseResp.y,mouseResp.leftButton,mouseResp.midButton,mouseResp.rightButton,mouseResp.clicked_name,practiceTrials.thisRepN,practiceTrials.thisTrialN,practiceTrials.thisN,practiceTrials.thisIndex,practiceTrials.ran,practiceTrials.order,isi,xPos,corrAns,participant,session,date,expName,psychopyVersion,frameRate,mainTrials.thisRepN,mainTrials.thisTrialN,mainTrials.thisN,mainTrials.thisIndex,mainTrials.ran,mainTrials.order
,0,-0.117777778,-0.021111111,1,0,0,targImage,1,0,8,5,1,7,1,-0.125,v,demie,001,2020-11-05_14h46.18.747,choiceRTT,3.1.3,60,,,,,,
,0,0.413333333,0.053333333,1,0,0,targImage,1,0,8,7,1,7,1,0.375,n,demie,001,2020-11-05_14h46.18.747,choiceRTT,3.1.3,60,,,,,,
,0,-0.377777778,0.021111111,1,0,0,targImage,1,0,8,0,1,7,1,-0.375,c,demie,001,2020-11-05_14h46.18.747,choiceRTT,3.1.3,60,,,,,,
,0,-0.321111111,-0.016666667,1,0,0,targImage,1,0,8,4,1,7,1,-0.375,c,demie,001,2020-11-05_14h46.18.747,choiceRTT,3.1.3,60,,,,,,
,0,0.373333333,-0.053333333,1,0,0,targImage,1,0,8,3,1,7,1,0.375,n,demie,001,2020-11-05_14h46.18.747,choiceRTT,3.1.3,60,,,,,,
,0,0.117777778,0.035555556,1,0,0,targImage,1,0,8,6,1,7,1,0.125,b,demie,001,2020-11-05_14h46.18.747,choiceRTT,3.1.3,60,,,,,,
,0,0.134444444,-0.007777778,1,0,0,targImage,1,0,8,2,1,7,1,0.125,b,demie,001,2020-11-05_14h46.18.747,choiceRTT,3.1.3,60,,,,,,
,0,-0.133333333,0.041111111,1,0,0,targImage,1,0,8,1,1,7,1,-0.125,v,demie,001,2020-11-05_14h46.18.747,choiceRTT,3.1.3,60,,,,,,
,0,0.382222222,-0.026666667,1,0,0,targImage,,,,,,,2.3332,0.375,n,demie,001,2020-11-05_14h46.18.747,choiceRTT,3.1.3,60,1,0,40,27,1,39
,0,0.107777778,-0.034444444,1,0,0,targImage,,,,,,,2.111,0.125,b,demie,001,2020-11-05_14h46.18.747,choiceRTT,3.1.3,60,1,0,40,22,1,39
,0,0.141111111,-0.013333333,1,0,0,targImage,,,,,,,1.2222,0.125,b,demie,001,2020-11-05_14h46.18.747,choiceRTT,3.1.3,60,1,0,40,6,1,39
,0,-0.101111111,-0.024444444,1,0,0,targImage,,,,,,,1.8888,-0.125,v,demie,001,2020-11-05_14h46.18.747,choiceRTT,3.1.3,60,1,0,40,17,1,39
,0,-0.1,-0.001111111,1,0,0,targImage,,,,,,,2.5554,-0.125,v,demie,001,2020-11-05_14h46.18.747,choiceRTT,3.1.3,60,1,0,40,29,1,39
,0,0.142222222,-0.013333333,1,0,0,targImage,,,,,,,1.8888,0.125,b,demie,001,2020-11-05_14h46.18.747,choiceRTT,3.1.3,60,1,0,40,18,1,39
,0,-0.346666667,-0.033333333,1,0,0,targImage,,,,,,,2.7776,-0.375,c,demie,001,2020-11-05_14h46.18.747,choiceRTT,3.1.3,60,1,0,40,32,1,39
,0,0.384444444,0.011111111,1,0,0,targImage,,,,,,,1,0.375,n,demie,001,2020-11-05_14h46.18.747,choiceRTT,3.1.3,60,1,0,40,3,1,39
,0,-0.107777778,-0.007777778,1,0,0,targImage,,,,,,,1,-0.125,v,demie,001,2020-11-05_14h46.18.747,choiceRTT,3.1.3,60,1,0,40,1,1,39
,0,0.411111111,0.003333333,1,0,0,targImage,,,,,,,1.8888,0.375,n,demie,001,2020-11-05_14h46.18.747,choiceRTT,3.1.3,60,1,0,40,19,1,39
,0,-0.398888889,0.013333333,1,0,0,targImage,,,,,,,1,-0.375,c,demie,001,2020-11-05_14h46.18.747,choiceRTT,3.1.3,60,1,0,40,0,1,39
,0,-0.105555556,-0.014444444,1,0,0,targImage,,,,,,,2.3332,-0.125,v,demie,001,2020-11-05_14h46.18.747,choiceRTT,3.1.3,60,1,0,40,25,1,39
,0,0.096666667,-0.02,1,0,0,targImage,,,,,,,2.5554,0.125,b,demie,001,2020-11-05_14h46.18.747,choiceRTT,3.1.3,60,1,0,40,30,1,39
,0,-0.338888889,-0.053333333,1,0,0,targImage,,,,,,,1.4444,-0.375,c,demie,001,2020-11-05_14h46.18.747,choiceRTT,3.1.3,60,1,0,40,8,1,39
,0,-0.443333333,0.058888889,1,0,0,targImage,,,,,,,2.111,-0.375,c,demie,001,2020-11-05_14h46.18.747,choiceRTT,3.1.3,60,1,0,40,20,1,39
,0,-0.4,0.023333333,1,0,0,targImage,,,,,,,1.6666,-0.375,c,demie,001,2020-11-05_14h46.18.747,choiceRTT,3.1.3,60,1,0,40,12,1,39
,0,0.332222222,-0.038888889,1,0,0,targImage,,,,,,,1.6666,0.375,n,demie,001,2020-11-05_14h46.18.747,choiceRTT,3.1.3,60,1,0,40,15,1,39
,0,-0.36,0.008888889,1,0,0,targImage,,,,,,,2.3332,-0.375,c,demie,001,2020-11-05_14h46.18.747,choiceRTT,3.1.3,60,1,0,40,24,1,39
,0,-0.402222222,0.007777778,1,0,0,targImage,,,,,,,2.9998,-0.375,c,demie,001,2020-11-05_14h46.18.747,choiceRTT,3.1.3,60,1,0,40,36,1,39
,0,-0.084444444,0.032222222,1,0,0,targImage,,,,,,,2.9998,-0.125,v,demie,001,2020-11-05_14h46.18.747,choiceRTT,3.1.3,60,1,0,40,37,1,39
,0,-0.421111111,0.018888889,1,0,0,targImage,,,,,,,2.5554,-0.375,c,demie,001,2020-11-05_14h46.18.747,choiceRTT,3.1.3,60,1,0,40,28,1,39
,0,0.367777778,-0.004444444,1,0,0,targImage,,,,,,,2.5554,0.375,n,demie,001,2020-11-05_14h46.18.747,choiceRTT,3.1.3,60,1,0,40,31,1,39
,0,0.42,0.027777778,1,0,0,targImage,,,,,,,2.9998,0.375,n,demie,001,2020-11-05_14h46.18.747,choiceRTT,3.1.3,60,1,0,40,39,1,39
,0,0.376666667,-0.005555556,1,0,0,targImage,,,,,,,2.7776,0.375,n,demie,001,2020-11-05_14h46.18.747,choiceRTT,3.1.3,60,1,0,40,35,1,39
,0,-0.095555556,0.003333333,1,0,0,targImage,,,,,,,1.4444,-0.125,v,demie,001,2020-11-05_14h46.18.747,choiceRTT,3.1.3,60,1,0,40,9,1,39
,0,0.106666667,-0.034444444,1,0,0,targImage,,,,,,,1.4444,0.125,b,demie,001,2020-11-05_14h46.18.747,choiceRTT,3.1.3,60,1,0,40,10,1,39
,0,-0.123333333,-0.021111111,1,0,0,targImage,,,,,,,2.111,-0.125,v,demie,001,2020-11-05_14h46.18.747,choiceRTT,3.1.3,60,1,0,40,21,1,39
,0,0.358888889,0.013333333,1,0,0,targImage,,,,,,,1.2222,0.375,n,demie,001,2020-11-05_14h46.18.747,choiceRTT,3.1.3,60,1,0,40,7,1,39
,0,-0.103333333,-0.007777778,1,0,0,targImage,,,,,,,1.2222,-0.125,v,demie,001,2020-11-05_14h46.18.747,choiceRTT,3.1.3,60,1,0,40,5,1,39
,0,-0.343333333,0.004444444,1,0,0,targImage,,,,,,,1.2222,-0.375,c,demie,001,2020-11-05_14h46.18.747,choiceRTT,3.1.3,60,1,0,40,4,1,39
,0,-0.34,0.031111111,1,0,0,targImage,,,,,,,1.8888,-0.375,c,demie,001,2020-11-05_14h46.18.747,choiceRTT,3.1.3,60,1,0,40,16,1,39
,0,0.362222222,0.005555556,1,0,0,targImage,,,,,,,1.4444,0.375,n,demie,001,2020-11-05_14h46.18.747,choiceRTT,3.1.3,60,1,0,40,11,1,39
,0,0.423333333,0.014444444,1,0,0,targImage,,,,,,,2.111,0.375,n,demie,001,2020-11-05_14h46.18.747,choiceRTT,3.1.3,60,1,0,40,23,1,39
,0,-0.112222222,-0.037777778,1,0,0,targImage,,,,,,,1.6666,-0.125,v,demie,001,2020-11-05_14h46.18.747,choiceRTT,3.1.3,60,1,0,40,13,1,39
,0,-0.102222222,-0.042222222,1,0,0,targImage,,,,,,,2.7776,-0.125,v,demie,001,2020-11-05_14h46.18.747,choiceRTT,3.1.3,60,1,0,40,33,1,39
,0,0.136666667,0.003333333,1,0,0,targImage,,,,,,,2.9998,0.125,b,demie,001,2020-11-05_14h46.18.747,choiceRTT,3.1.3,60,1,0,40,38,1,39
,0,0.111111111,-0.013333333,1,0,0,targImage,,,,,,,2.7776,0.125,b,demie,001,2020-11-05_14h46.18.747,choiceRTT,3.1.3,60,1,0,40,34,1,39
,0,0.087777778,-0.017777778,1,0,0,targImage,,,,,,,2.3332,0.125,b,demie,001,2020-11-05_14h46.18.747,choiceRTT,3.1.3,60,1,0,40,26,1,39
,0,0.142222222,0.005555556,1,0,0,targImage,,,,,,,1,0.125,b,demie,001,2020-11-05_14h46.18.747,choiceRTT,3.1.3,60,1,0,40,2,1,39
,0,0.128888889,0.003333333,1,0,0,targImage,,,,,,,1.6666,0.125,b,demie,001,2020-11-05_14h46.18.747,choiceRTT,3.1.3,60,1,0,40,14,1,39
