response.keys,response.corr,mouseResp.x,mouseResp.y,mouseResp.leftButton,mouseResp.midButton,mouseResp.rightButton,mouseResp.clicked_name,practiceTrials.thisRepN,practiceTrials.thisTrialN,practiceTrials.thisN,practiceTrials.thisIndex,practiceTrials.ran,practiceTrials.order,isi,xPos,corrAns,participant,session,date,expName,psychopyVersion,frameRate,mainTrials.thisRepN,mainTrials.thisTrialN,mainTrials.thisN,mainTrials.thisIndex,mainTrials.ran,mainTrials.order
,0,-0.0975,-0.0275,1,0,0,targImage,1,0,8,1,1,7,1,-0.125,v,demo,001,2020-09-06_03h27.59.209,choiceRTT,3.1.3,60,,,,,,
,0,-0.1125,-0.015,1,0,0,targImage,1,0,8,5,1,7,1,-0.125,v,demo,001,2020-09-06_03h27.59.209,choiceRTT,3.1.3,60,,,,,,
,0,-0.415,0.02,1,0,0,targImage,1,0,8,4,1,7,1,-0.375,c,demo,001,2020-09-06_03h27.59.209,choiceRTT,3.1.3,60,,,,,,
,0,-0.345,0.03125,1,0,0,targImage,1,0,8,0,1,7,1,-0.375,c,demo,001,2020-09-06_03h27.59.209,choiceRTT,3.1.3,60,,,,,,
,0,0.1525,0.045,1,0,0,targImage,1,0,8,2,1,7,1,0.125,b,demo,001,2020-09-06_03h27.59.209,choiceRTT,3.1.3,60,,,,,,
,0,0.1525,0.045,1,0,0,targImage,1,0,8,6,1,7,1,0.125,b,demo,001,2020-09-06_03h27.59.209,choiceRTT,3.1.3,60,,,,,,
,0,0.39625,0.02125,1,0,0,targImage,1,0,8,3,1,7,1,0.375,n,demo,001,2020-09-06_03h27.59.209,choiceRTT,3.1.3,60,,,,,,
,0,0.39625,0.02125,1,0,0,targImage,1,0,8,7,1,7,1,0.375,n,demo,001,2020-09-06_03h27.59.209,choiceRTT,3.1.3,60,,,,,,
,0,0.145,-0.01,1,0,0,targImage,,,,,,,1,0.125,b,demo,001,2020-09-06_03h27.59.209,choiceRTT,3.1.3,60,1,0,40,2,1,39
,0,-0.12625,-0.02375,1,0,0,targImage,,,,,,,1.4444,-0.125,v,demo,001,2020-09-06_03h27.59.209,choiceRTT,3.1.3,60,1,0,40,9,1,39
,0,0.3275,-0.025,1,0,0,targImage,,,,,,,1.8888,0.375,n,demo,001,2020-09-06_03h27.59.209,choiceRTT,3.1.3,60,1,0,40,19,1,39
,0,-0.1225,-0.00875,1,0,0,targImage,,,,,,,2.3332,-0.125,v,demo,001,2020-09-06_03h27.59.209,choiceRTT,3.1.3,60,1,0,40,25,1,39
,0,-0.33625,-0.0425,1,0,0,targImage,,,,,,,1.4444,-0.375,c,demo,001,2020-09-06_03h27.59.209,choiceRTT,3.1.3,60,1,0,40,8,1,39
,0,0.33,0.0375,1,0,0,targImage,,,,,,,2.3332,0.375,n,demo,001,2020-09-06_03h27.59.209,choiceRTT,3.1.3,60,1,0,40,27,1,39
,0,0.17,-0.03625,1,0,0,targImage,,,,,,,2.7776,0.125,b,demo,001,2020-09-06_03h27.59.209,choiceRTT,3.1.3,60,1,0,40,34,1,39
,0,-0.11,-0.00125,1,0,0,targImage,,,,,,,2.9998,-0.125,v,demo,001,2020-09-06_03h27.59.209,choiceRTT,3.1.3,60,1,0,40,37,1,39
,0,0.11125,0.0175,1,0,0,targImage,,,,,,,1.2222,0.125,b,demo,001,2020-09-06_03h27.59.209,choiceRTT,3.1.3,60,1,0,40,6,1,39
,0,0.11125,0.0175,1,0,0,targImage,,,,,,,1.4444,0.125,b,demo,001,2020-09-06_03h27.59.209,choiceRTT,3.1.3,60,1,0,40,10,1,39
,0,-0.3725,-0.0175,1,0,0,targImage,,,,,,,1.8888,-0.375,c,demo,001,2020-09-06_03h27.59.209,choiceRTT,3.1.3,60,1,0,40,16,1,39
,0,-0.155,0.01625,1,0,0,targImage,,,,,,,1.6666,-0.125,v,demo,001,2020-09-06_03h27.59.209,choiceRTT,3.1.3,60,1,0,40,13,1,39
,0,-0.36,0.005,1,0,0,targImage,,,,,,,2.3332,-0.375,c,demo,001,2020-09-06_03h27.59.209,choiceRTT,3.1.3,60,1,0,40,24,1,39
,0,0.09125,0.04375,1,0,0,targImage,,,,,,,2.111,0.125,b,demo,001,2020-09-06_03h27.59.209,choiceRTT,3.1.3,60,1,0,40,22,1,39
,0,0.35375,0.02875,1,0,0,targImage,,,,,,,1.6666,0.375,n,demo,001,2020-09-06_03h27.59.209,choiceRTT,3.1.3,60,1,0,40,15,1,39
,0,-0.315,-0.02625,1,0,0,targImage,,,,,,,2.7776,-0.375,c,demo,001,2020-09-06_03h27.59.209,choiceRTT,3.1.3,60,1,0,40,32,1,39
,0,0.35125,-0.005,1,0,0,targImage,,,,,,,1.2222,0.375,n,demo,001,2020-09-06_03h27.59.209,choiceRTT,3.1.3,60,1,0,40,7,1,39
,0,-0.14875,-0.00125,1,0,0,targImage,,,,,,,1.2222,-0.125,v,demo,001,2020-09-06_03h27.59.209,choiceRTT,3.1.3,60,1,0,40,5,1,39
,0,0.36125,-0.00125,1,0,0,targImage,,,,,,,2.5554,0.375,n,demo,001,2020-09-06_03h27.59.209,choiceRTT,3.1.3,60,1,0,40,31,1,39
,0,-0.3175,-0.0325,1,0,0,targImage,,,,,,,2.5554,-0.375,c,demo,001,2020-09-06_03h27.59.209,choiceRTT,3.1.3,60,1,0,40,28,1,39
,0,0.35625,0.045,1,0,0,targImage,,,,,,,1.4444,0.375,n,demo,001,2020-09-06_03h27.59.209,choiceRTT,3.1.3,60,1,0,40,11,1,39
,0,-0.0875,-0.0125,1,0,0,targImage,,,,,,,2.5554,-0.125,v,demo,001,2020-09-06_03h27.59.209,choiceRTT,3.1.3,60,1,0,40,29,1,39
,0,0.13625,0.005,1,0,0,targImage,,,,,,,2.9998,0.125,b,demo,001,2020-09-06_03h27.59.209,choiceRTT,3.1.3,60,1,0,40,38,1,39
,0,-0.385,0.005,1,0,0,targImage,,,,,,,1,-0.375,c,demo,001,2020-09-06_03h27.59.209,choiceRTT,3.1.3,60,1,0,40,0,1,39
,0,-0.385,0.005,1,0,0,targImage,,,,,,,1.6666,-0.375,c,demo,001,2020-09-06_03h27.59.209,choiceRTT,3.1.3,60,1,0,40,12,1,39
,0,-0.11375,-0.00125,1,0,0,targImage,,,,,,,1,-0.125,v,demo,001,2020-09-06_03h27.59.209,choiceRTT,3.1.3,60,1,0,40,1,1,39
,0,-0.3475,-0.01375,1,0,0,targImage,,,,,,,2.111,-0.375,c,demo,001,2020-09-06_03h27.59.209,choiceRTT,3.1.3,60,1,0,40,20,1,39
,0,0.41125,0.03875,1,0,0,targImage,,,,,,,2.9998,0.375,n,demo,001,2020-09-06_03h27.59.209,choiceRTT,3.1.3,60,1,0,40,39,1,39
,0,-0.07125,-0.03,1,0,0,targImage,,,,,,,2.7776,-0.125,v,demo,001,2020-09-06_03h27.59.209,choiceRTT,3.1.3,60,1,0,40,33,1,39
,0,0.1325,0.02625,1,0,0,targImage,,,,,,,2.5554,0.125,b,demo,001,2020-09-06_03h27.59.209,choiceRTT,3.1.3,60,1,0,40,30,1,39
,0,-0.4025,-0.0125,1,0,0,targImage,,,,,,,2.9998,-0.375,c,demo,001,2020-09-06_03h27.59.209,choiceRTT,3.1.3,60,1,0,40,36,1,39
,0,0.1,-0.00625,1,0,0,targImage,,,,,,,1.6666,0.125,b,demo,001,2020-09-06_03h27.59.209,choiceRTT,3.1.3,60,1,0,40,14,1,39
,0,-0.10875,-0.01875,1,0,0,targImage,,,,,,,1.8888,-0.125,v,demo,001,2020-09-06_03h27.59.209,choiceRTT,3.1.3,60,1,0,40,17,1,39
,0,-0.38125,-0.01125,1,0,0,targImage,,,,,,,1.2222,-0.375,c,demo,001,2020-09-06_03h27.59.209,choiceRTT,3.1.3,60,1,0,40,4,1,39
,0,0.37625,0.0125,1,0,0,targImage,,,,,,,2.111,0.375,n,demo,001,2020-09-06_03h27.59.209,choiceRTT,3.1.3,60,1,0,40,23,1,39
,0,0.37625,0.0125,1,0,0,targImage,,,,,,,1,0.375,n,demo,001,2020-09-06_03h27.59.209,choiceRTT,3.1.3,60,1,0,40,3,1,39
,0,0.37625,0.0125,1,0,0,targImage,,,,,,,2.7776,0.375,n,demo,001,2020-09-06_03h27.59.209,choiceRTT,3.1.3,60,1,0,40,35,1,39
,0,0.14625,-0.01375,1,0,0,targImage,,,,,,,1.8888,0.125,b,demo,001,2020-09-06_03h27.59.209,choiceRTT,3.1.3,60,1,0,40,18,1,39
,0,-0.1225,-0.00125,1,0,0,targImage,,,,,,,2.111,-0.125,v,demo,001,2020-09-06_03h27.59.209,choiceRTT,3.1.3,60,1,0,40,21,1,39
,0,0.12,-0.0175,1,0,0,targImage,,,,,,,2.3332,0.125,b,demo,001,2020-09-06_03h27.59.209,choiceRTT,3.1.3,60,1,0,40,26,1,39
