response.keys,response.corr,mouseResp.x,mouseResp.y,mouseResp.leftButton,mouseResp.midButton,mouseResp.rightButton,mouseResp.clicked_name,practiceTrials.thisRepN,practiceTrials.thisTrialN,practiceTrials.thisN,practiceTrials.thisIndex,practiceTrials.ran,practiceTrials.order,isi,xPos,corrAns,participant,session,date,expName,psychopyVersion,frameRate,mainTrials.thisRepN,mainTrials.thisTrialN,mainTrials.thisN,mainTrials.thisIndex,mainTrials.ran,mainTrials.order
,0,0.366666667,0.037777778,1,0,0,targImage,1,0,8,7,1,7,1,0.375,n,Dina,001,2020-08-31_11h01.54.031,choiceRTT,3.1.3,60,,,,,,
,0,0.143333333,0.026666667,1,0,0,targImage,1,0,8,6,1,7,1,0.125,b,Dina,001,2020-08-31_11h01.54.031,choiceRTT,3.1.3,60,,,,,,
,0,-0.355555556,-0.006666667,1,0,0,targImage,1,0,8,4,1,7,1,-0.375,c,Dina,001,2020-08-31_11h01.54.031,choiceRTT,3.1.3,60,,,,,,
,0,-0.135555556,-0.001111111,1,0,0,targImage,1,0,8,5,1,7,1,-0.125,v,Dina,001,2020-08-31_11h01.54.031,choiceRTT,3.1.3,60,,,,,,
,0,-0.387777778,0.002222222,1,0,0,targImage,1,0,8,0,1,7,1,-0.375,c,Dina,001,2020-08-31_11h01.54.031,choiceRTT,3.1.3,60,,,,,,
,0,0.317777778,0.04,1,0,0,targImage,1,0,8,3,1,7,1,0.375,n,Dina,001,2020-08-31_11h01.54.031,choiceRTT,3.1.3,60,,,,,,
,0,0.157777778,0.015555556,1,0,0,targImage,1,0,8,2,1,7,1,0.125,b,Dina,001,2020-08-31_11h01.54.031,choiceRTT,3.1.3,60,,,,,,
,0,-0.103333333,0.002222222,1,0,0,targImage,1,0,8,1,1,7,1,-0.125,v,Dina,001,2020-08-31_11h01.54.031,choiceRTT,3.1.3,60,,,,,,
,0,-0.123333333,-0.036666667,1,0,0,targImage,,,,,,,1.6666,-0.125,v,Dina,001,2020-08-31_11h01.54.031,choiceRTT,3.1.3,60,1,0,40,13,1,39
,0,0.112222222,0.01,1,0,0,targImage,,,,,,,2.9998,0.125,b,Dina,001,2020-08-31_11h01.54.031,choiceRTT,3.1.3,60,1,0,40,38,1,39
,0,0.112222222,0.01,1,0,0,targImage,,,,,,,2.3332,0.125,b,Dina,001,2020-08-31_11h01.54.031,choiceRTT,3.1.3,60,1,0,40,26,1,39
,0,0.112222222,0.01,1,0,0,targImage,,,,,,,1.8888,0.125,b,Dina,001,2020-08-31_11h01.54.031,choiceRTT,3.1.3,60,1,0,40,18,1,39
,0,0.112222222,0.01,1,0,0,targImage,,,,,,,1.2222,0.125,b,Dina,001,2020-08-31_11h01.54.031,choiceRTT,3.1.3,60,1,0,40,6,1,39
,0,-0.362222222,-0.01,1,0,0,targImage,,,,,,,2.111,-0.375,c,Dina,001,2020-08-31_11h01.54.031,choiceRTT,3.1.3,60,1,0,40,20,1,39
,0,-0.354444444,-0.011111111,1,0,0,targImage,,,,,,,2.5554,-0.375,c,Dina,001,2020-08-31_11h01.54.031,choiceRTT,3.1.3,60,1,0,40,28,1,39
,0,-0.388888889,-0.004444444,1,0,0,targImage,,,,,,,1.6666,-0.375,c,Dina,001,2020-08-31_11h01.54.031,choiceRTT,3.1.3,60,1,0,40,12,1,39
,0,-0.122222222,-0.003333333,1,0,0,targImage,,,,,,,1.8888,-0.125,v,Dina,001,2020-08-31_11h01.54.031,choiceRTT,3.1.3,60,1,0,40,17,1,39
,0,0.437777778,0.045555556,1,0,0,targImage,,,,,,,1.6666,0.375,n,Dina,001,2020-08-31_11h01.54.031,choiceRTT,3.1.3,60,1,0,40,15,1,39
,0,-0.384444444,0.016666667,1,0,0,targImage,,,,,,,1.2222,-0.375,c,Dina,001,2020-08-31_11h01.54.031,choiceRTT,3.1.3,60,1,0,40,4,1,39
,0,-0.376666667,0.005555556,1,0,0,targImage,,,,,,,2.9998,-0.375,c,Dina,001,2020-08-31_11h01.54.031,choiceRTT,3.1.3,60,1,0,40,36,1,39
,0,-0.108888889,0.003333333,1,0,0,targImage,,,,,,,1.2222,-0.125,v,Dina,001,2020-08-31_11h01.54.031,choiceRTT,3.1.3,60,1,0,40,5,1,39
,0,0.358888889,0.005555556,1,0,0,targImage,,,,,,,1.8888,0.375,n,Dina,001,2020-08-31_11h01.54.031,choiceRTT,3.1.3,60,1,0,40,19,1,39
,0,-0.117777778,0.003333333,1,0,0,targImage,,,,,,,1,-0.125,v,Dina,001,2020-08-31_11h01.54.031,choiceRTT,3.1.3,60,1,0,40,1,1,39
,0,0.368888889,0.02,1,0,0,targImage,,,,,,,1,0.375,n,Dina,001,2020-08-31_11h01.54.031,choiceRTT,3.1.3,60,1,0,40,3,1,39
,0,0.39,-0.015555556,1,0,0,targImage,,,,,,,1.2222,0.375,n,Dina,001,2020-08-31_11h01.54.031,choiceRTT,3.1.3,60,1,0,40,7,1,39
,0,-0.373333333,0.006666667,1,0,0,targImage,,,,,,,1.4444,-0.375,c,Dina,001,2020-08-31_11h01.54.031,choiceRTT,3.1.3,60,1,0,40,8,1,39
,0,0.141111111,0.005555556,1,0,0,targImage,,,,,,,2.5554,0.125,b,Dina,001,2020-08-31_11h01.54.031,choiceRTT,3.1.3,60,1,0,40,30,1,39
,0,-0.384444444,-0.01,1,0,0,targImage,,,,,,,1.8888,-0.375,c,Dina,001,2020-08-31_11h01.54.031,choiceRTT,3.1.3,60,1,0,40,16,1,39
,0,0.162222222,0.007777778,1,0,0,targImage,,,,,,,2.7776,0.125,b,Dina,001,2020-08-31_11h01.54.031,choiceRTT,3.1.3,60,1,0,40,34,1,39
,0,-0.118888889,0.007777778,1,0,0,targImage,,,,,,,2.9998,-0.125,v,Dina,001,2020-08-31_11h01.54.031,choiceRTT,3.1.3,60,1,0,40,37,1,39
,0,0.101111111,-0.032222222,1,0,0,targImage,,,,,,,1,0.125,b,Dina,001,2020-08-31_11h01.54.031,choiceRTT,3.1.3,60,1,0,40,2,1,39
,0,0.357777778,0.017777778,1,0,0,targImage,,,,,,,2.9998,0.375,n,Dina,001,2020-08-31_11h01.54.031,choiceRTT,3.1.3,60,1,0,40,39,1,39
,0,0.363333333,0.007777778,1,0,0,targImage,,,,,,,2.111,0.375,n,Dina,001,2020-08-31_11h01.54.031,choiceRTT,3.1.3,60,1,0,40,23,1,39
,0,-0.121111111,0.006666667,1,0,0,targImage,,,,,,,2.5554,-0.125,v,Dina,001,2020-08-31_11h01.54.031,choiceRTT,3.1.3,60,1,0,40,29,1,39
,0,0.362222222,0.027777778,1,0,0,targImage,,,,,,,2.3332,0.375,n,Dina,001,2020-08-31_11h01.54.031,choiceRTT,3.1.3,60,1,0,40,27,1,39
,0,0.118888889,-0.023333333,1,0,0,targImage,,,,,,,1.6666,0.125,b,Dina,001,2020-08-31_11h01.54.031,choiceRTT,3.1.3,60,1,0,40,14,1,39
,0,0.393333333,0.003333333,1,0,0,targImage,,,,,,,2.7776,0.375,n,Dina,001,2020-08-31_11h01.54.031,choiceRTT,3.1.3,60,1,0,40,35,1,39
,0,0.393333333,0.003333333,1,0,0,targImage,,,,,,,1.4444,0.375,n,Dina,001,2020-08-31_11h01.54.031,choiceRTT,3.1.3,60,1,0,40,11,1,39
,0,-0.363333333,-0.012222222,1,0,0,targImage,,,,,,,1,-0.375,c,Dina,001,2020-08-31_11h01.54.031,choiceRTT,3.1.3,60,1,0,40,0,1,39
,0,-0.362222222,-0.013333333,1,0,0,targImage,,,,,,,2.3332,-0.375,c,Dina,001,2020-08-31_11h01.54.031,choiceRTT,3.1.3,60,1,0,40,24,1,39
,0,0.353333333,0.025555556,1,0,0,targImage,,,,,,,2.5554,0.375,n,Dina,001,2020-08-31_11h01.54.031,choiceRTT,3.1.3,60,1,0,40,31,1,39
,0,-0.371111111,-0.013333333,1,0,0,targImage,,,,,,,2.7776,-0.375,c,Dina,001,2020-08-31_11h01.54.031,choiceRTT,3.1.3,60,1,0,40,32,1,39
,0,0.134444444,-0.004444444,1,0,0,targImage,,,,,,,2.111,0.125,b,Dina,001,2020-08-31_11h01.54.031,choiceRTT,3.1.3,60,1,0,40,22,1,39
,0,-0.144444444,0.006666667,1,0,0,targImage,,,,,,,2.7776,-0.125,v,Dina,001,2020-08-31_11h01.54.031,choiceRTT,3.1.3,60,1,0,40,33,1,39
,0,-0.143333333,0.006666667,1,0,0,targImage,,,,,,,1.4444,-0.125,v,Dina,001,2020-08-31_11h01.54.031,choiceRTT,3.1.3,60,1,0,40,9,1,39
,0,-0.143333333,0.006666667,1,0,0,targImage,,,,,,,2.3332,-0.125,v,Dina,001,2020-08-31_11h01.54.031,choiceRTT,3.1.3,60,1,0,40,25,1,39
,0,0.141111111,-0.003333333,1,0,0,targImage,,,,,,,1.4444,0.125,b,Dina,001,2020-08-31_11h01.54.031,choiceRTT,3.1.3,60,1,0,40,10,1,39
,0,-0.121111111,-0.008888889,1,0,0,targImage,,,,,,,2.111,-0.125,v,Dina,001,2020-08-31_11h01.54.031,choiceRTT,3.1.3,60,1,0,40,21,1,39
