participant,session,date,expName,psychopyVersion,OS,frameRate,keyResp.keys,keyResp.corr,mouseResp.x,mouseResp.y,mouseResp.leftButton,mouseResp.midButton,mouseResp.rightButton,mouseResp.time,mouseResp.clicked_name,correctMouseResp,trialRespTimes,moveOnKeys.keys,PracticeLoop.thisRepN,PracticeLoop.thisTrialN,PracticeLoop.thisN,PracticeLoop.thisIndex,PracticeLoop.ran,onsetTime,thisImage,key_resp.keys,mouse.x,mouse.y,mouse.leftButton,mouse.midButton,mouse.rightButton,ExptLoop.thisRepN,ExptLoop.thisTrialN,ExptLoop.thisN,ExptLoop.thisIndex,ExptLoop.ran
e,001,2023-09-30_18h14.08.871,choiceRTT,2023.1.3,Win32,58.94488653,,,,,,,,,,,,,,,,,,,,,,,,,,,,,,
e,001,2023-09-30_18h14.08.871,choiceRTT,2023.1.3,Win32,58.94488653,,0,0.209259259,-0.226851852,1,0,0,4.7204,plus_button,1,3.2204,,0,0,0,4,1,1.5,images/target_plus.jpg,,,,,,,,,,,
e,001,2023-09-30_18h14.08.871,choiceRTT,2023.1.3,Win32,58.94488653,,0,-0.203703704,-0.289814815,1,0,0,2.2761,cross_button,1,1.1761,,0,1,1,0,1,1.1,images/target_cross.jpg,,,,,,,,,,,
e,001,2023-09-30_18h14.08.871,choiceRTT,2023.1.3,Win32,58.94488653,,0,0.210185185,-0.213888889,1,0,0,1.9807,plus_button,1,0.6807,,0,2,2,1,1,1.3,images/target_plus.jpg,,,,,,,,,,,
e,001,2023-09-30_18h14.08.871,choiceRTT,2023.1.3,Win32,58.94488653,,0,0.187037037,-0.237037037,1,0,0,2.4893,plus_button,1,1.3893,,0,3,3,7,1,1.1,images/target_plus.jpg,,,,,,,,,,,
e,001,2023-09-30_18h14.08.871,choiceRTT,2023.1.3,Win32,58.94488653,,0,-0.02037037,-0.242592593,1,0,0,2.5389,square_button,1,1.4389,,0,4,4,5,1,1.1,images/target_square.jpg,,,,,,,,,,,
e,001,2023-09-30_18h14.08.871,choiceRTT,2023.1.3,Win32,58.94488653,,0,-0.24537037,-0.271296296,1,0,0,2.727,cross_button,1,1.427,,0,5,5,3,1,1.3,images/target_cross.jpg,,,,,,,,,,,
e,001,2023-09-30_18h14.08.871,choiceRTT,2023.1.3,Win32,58.94488653,,0,0.086111111,-0.237037037,1,0,0,1.9658,square_button,1,0.6658,,0,6,6,8,1,1.3,images/target_square.jpg,,,,,,,,,,,
e,001,2023-09-30_18h14.08.871,choiceRTT,2023.1.3,Win32,58.94488653,,0,0.062037037,-0.240740741,1,0,0,2.0767,square_button,0,0.5767,,0,7,7,6,1,1.5,images/target_cross.jpg,,,,,,,,,,,
e,001,2023-09-30_18h14.08.871,choiceRTT,2023.1.3,Win32,58.94488653,,0,0.051851852,-0.225925926,1,0,0,2.6078,square_button,1,1.1078,,0,8,8,2,1,1.5,images/target_square.jpg,,,,,,,,,,,
e,001,2023-09-30_18h14.08.871,choiceRTT,2023.1.3,Win32,58.94488653,,,,,,,,,,,,,,,,,,,,,0.053703704,-0.231481481,1,0,0,,,,,
e,001,2023-09-30_18h14.08.871,choiceRTT,2023.1.3,Win32,58.94488653,,0,0.056481481,-0.223148148,1,0,0,2.3347,square_button,1,0.8347,,,,,,,1.5,images/target_square.jpg,,,,,,,0,0,0,2,1
e,001,2023-09-30_18h14.08.871,choiceRTT,2023.1.3,Win32,58.94488653,,0,0.253703704,-0.230555556,1,0,0,2.4107,plus_button,1,0.9107,,,,,,,1.5,images/target_plus.jpg,,,,,,,0,1,1,4,1
e,001,2023-09-30_18h14.08.871,choiceRTT,2023.1.3,Win32,58.94488653,,0,-0.050925926,-0.251851852,1,0,0,2.0789,square_button,1,0.7789,,,,,,,1.3,images/target_square.jpg,,,,,,,0,2,2,8,1
e,001,2023-09-30_18h14.08.871,choiceRTT,2023.1.3,Win32,58.94488653,,0,-0.022222222,-0.241666667,1,0,0,1.7296,square_button,1,0.6296,,,,,,,1.1,images/target_square.jpg,,,,,,,0,3,3,5,1
e,001,2023-09-30_18h14.08.871,choiceRTT,2023.1.3,Win32,58.94488653,,0,-0.162037037,-0.252777778,1,0,0,2.0148,cross_button,1,0.5148,,,,,,,1.5,images/target_cross.jpg,,,,,,,0,4,4,6,1
e,001,2023-09-30_18h14.08.871,choiceRTT,2023.1.3,Win32,58.94488653,,0,0.380555556,-0.241666667,1,0,0,1.7819,plus_button,1,0.6819,,,,,,,1.1,images/target_plus.jpg,,,,,,,0,5,5,7,1
e,001,2023-09-30_18h14.08.871,choiceRTT,2023.1.3,Win32,58.94488653,,0,0.20462963,-0.239814815,1,0,0,2.0713,plus_button,1,0.7713,,,,,,,1.3,images/target_plus.jpg,,,,,,,0,6,6,1,1
e,001,2023-09-30_18h14.08.871,choiceRTT,2023.1.3,Win32,58.94488653,,0,-0.198148148,-0.25,1,0,0,2.1381,cross_button,1,0.8381,,,,,,,1.3,images/target_cross.jpg,,,,,,,0,7,7,3,1
e,001,2023-09-30_18h14.08.871,choiceRTT,2023.1.3,Win32,58.94488653,,0,-0.228703704,-0.250925926,1,0,0,1.8769,cross_button,1,0.7769,,,,,,,1.1,images/target_cross.jpg,,,,,,,0,8,8,0,1
e,001,2023-09-30_18h14.08.871,choiceRTT,2023.1.3,Win32,58.94488653,,0,-0.249074074,-0.240740741,1,0,0,1.8556,cross_button,1,0.5556,,,,,,,1.3,images/target_cross.jpg,,,,,,,1,0,9,3,1
e,001,2023-09-30_18h14.08.871,choiceRTT,2023.1.3,Win32,58.94488653,,0,0.003703704,-0.243518519,1,0,0,2.0561,square_button,1,0.5561,,,,,,,1.5,images/target_square.jpg,,,,,,,1,1,10,2,1
e,001,2023-09-30_18h14.08.871,choiceRTT,2023.1.3,Win32,58.94488653,,0,-0.189814815,-0.255555556,1,0,0,1.6974,cross_button,1,0.5974,,,,,,,1.1,images/target_cross.jpg,,,,,,,1,2,11,0,1
e,001,2023-09-30_18h14.08.871,choiceRTT,2023.1.3,Win32,58.94488653,,0,-0.198148148,-0.263888889,1,0,0,2.0657,cross_button,1,0.5657,,,,,,,1.5,images/target_cross.jpg,,,,,,,1,3,12,6,1
