keyResp.keys,keyResp.corr,keyResp.rt,mouseResp.x,mouseResp.y,mouseResp.leftButton,mouseResp.midButton,mouseResp.rightButton,mouseResp.time,mouseResp.clicked_name,trialRespTimes,moveOnKeys.keys,moveOnKeys.rt,PracticeLoop.thisRepN,PracticeLoop.thisTrialN,PracticeLoop.thisN,PracticeLoop.thisIndex,PracticeLoop.ran,onsetTime,thisImage,participant,session,date,expName,psychopyVersion,OS,frameRate,key_resp.keys,key_resp.rt,mouse.x,mouse.y,mouse.leftButton,mouse.midButton,mouse.rightButton,ExptLoop.thisRepN,ExptLoop.thisTrialN,ExptLoop.thisN,ExptLoop.thisIndex,ExptLoop.ran
v,0,2.1603,,,,,,,,0.8603,space,3.1641,0,0,0,1,1,1.3,images/target_plus.jpg,ege,001,2022-12-04_19h59.18.389,choiceRTT,2021.2.3,MacIntel,30.0003,,,,,,,,,,,,
v,0,1.2075,,,,,,,,0.1075,space,1.2982,0,1,1,7,1,1.1,images/target_plus.jpg,ege,001,2022-12-04_19h59.18.389,choiceRTT,2021.2.3,MacIntel,30.0003,,,,,,,,,,,,
v,0,1.0181,,,,,,,,-0.0819,space,2.5397,0,2,2,0,1,1.1,images/target_cross.jpg,ege,001,2022-12-04_19h59.18.389,choiceRTT,2021.2.3,MacIntel,30.0003,,,,,,,,,,,,
v,1,1.1674,,,,,,,,0.0674,v,4.8227,0,3,3,5,1,1.1,images/target_square.jpg,ege,001,2022-12-04_19h59.18.389,choiceRTT,2021.2.3,MacIntel,30.0003,,,,,,,,,,,,
c,0,3.1945,,,,,,,,1.6945,space,2.729,0,4,4,4,1,1.5,images/target_plus.jpg,ege,001,2022-12-04_19h59.18.389,choiceRTT,2021.2.3,MacIntel,30.0003,,,,,,,,,,,,
c,1,2.1042,,,,,,,,0.8042,space,5.1975,0,5,5,3,1,1.3,images/target_cross.jpg,ege,001,2022-12-04_19h59.18.389,choiceRTT,2021.2.3,MacIntel,30.0003,,,,,,,,,,,,
b,0,0.8743,,,,,,,,-0.6257,space,1.931,0,6,6,2,1,1.5,images/target_square.jpg,ege,001,2022-12-04_19h59.18.389,choiceRTT,2021.2.3,MacIntel,30.0003,,,,,,,,,,,,
c,1,2.5387,,,,,,,,1.0387,space,2.5315,0,7,7,6,1,1.5,images/target_cross.jpg,ege,001,2022-12-04_19h59.18.389,choiceRTT,2021.2.3,MacIntel,30.0003,,,,,,,,,,,,
v,1,2.8667,,,,,,,,1.5667,space,1.242,0,8,8,8,1,1.3,images/target_square.jpg,ege,001,2022-12-04_19h59.18.389,choiceRTT,2021.2.3,MacIntel,30.0003,,,,,,,,,,,,
c,1,2.3094,,,,,,,,1.2094,,,,,,,,1.1,images/target_cross.jpg,ege,001,2022-12-04_19h59.18.389,choiceRTT,2021.2.3,MacIntel,30.0003,space,4.5379,0.210691223,-0.115383606,0,0,0,0,0,0,0,1
c,1,1.9461,,,,,,,,0.6461,,,,,,,,1.3,images/target_cross.jpg,ege,001,2022-12-04_19h59.18.389,choiceRTT,2021.2.3,MacIntel,30.0003,,,,,,,,0,1,1,3,1
v,1,2.1857,,,,,,,,1.0857,,,,,,,,1.1,images/target_square.jpg,ege,001,2022-12-04_19h59.18.389,choiceRTT,2021.2.3,MacIntel,30.0003,,,,,,,,0,2,2,5,1
v,1,3.3793,,,,,,,,1.8793,,,,,,,,1.5,images/target_square.jpg,ege,001,2022-12-04_19h59.18.389,choiceRTT,2021.2.3,MacIntel,30.0003,,,,,,,,0,3,3,2,1
v,1,2.362,,,,,,,,1.062,,,,,,,,1.3,images/target_square.jpg,ege,001,2022-12-04_19h59.18.389,choiceRTT,2021.2.3,MacIntel,30.0003,,,,,,,,0,4,4,8,1
c,1,2.4925,,,,,,,,0.9925,,,,,,,,1.5,images/target_cross.jpg,ege,001,2022-12-04_19h59.18.389,choiceRTT,2021.2.3,MacIntel,30.0003,,,,,,,,0,5,5,6,1
v,0,2.2287,,,,,,,,0.7287,,,,,,,,1.5,images/target_plus.jpg,ege,001,2022-12-04_19h59.18.389,choiceRTT,2021.2.3,MacIntel,30.0003,,,,,,,,0,6,6,4,1
c,0,2.1091,,,,,,,,0.8091,,,,,,,,1.3,images/target_plus.jpg,ege,001,2022-12-04_19h59.18.389,choiceRTT,2021.2.3,MacIntel,30.0003,,,,,,,,0,7,7,1,1
c,0,1.8829,,,,,,,,0.7829,,,,,,,,1.1,images/target_plus.jpg,ege,001,2022-12-04_19h59.18.389,choiceRTT,2021.2.3,MacIntel,30.0003,,,,,,,,0,8,8,7,1
v,1,2.2501,,,,,,,,0.9501,,,,,,,,1.3,images/target_square.jpg,ege,001,2022-12-04_19h59.18.389,choiceRTT,2021.2.3,MacIntel,30.0003,,,,,,,,1,0,9,8,1
v,1,2.18,,,,,,,,0.68,,,,,,,,1.5,images/target_square.jpg,ege,001,2022-12-04_19h59.18.389,choiceRTT,2021.2.3,MacIntel,30.0003,,,,,,,,1,1,10,2,1
c,1,2.2738,,,,,,,,0.9738,,,,,,,,1.3,images/target_cross.jpg,ege,001,2022-12-04_19h59.18.389,choiceRTT,2021.2.3,MacIntel,30.0003,,,,,,,,1,2,11,3,1
c,1,2.4239,,,,,,,,0.9239,,,,,,,,1.5,images/target_cross.jpg,ege,001,2022-12-04_19h59.18.389,choiceRTT,2021.2.3,MacIntel,30.0003,,,,,,,,1,3,12,6,1
c,0,1.9303,,,,,,,,0.6303,,,,,,,,1.3,images/target_plus.jpg,ege,001,2022-12-04_19h59.18.389,choiceRTT,2021.2.3,MacIntel,30.0003,,,,,,,,1,4,13,1,1
c,0,2.3586,,,,,,,,0.8586,,,,,,,,1.5,images/target_plus.jpg,ege,001,2022-12-04_19h59.18.389,choiceRTT,2021.2.3,MacIntel,30.0003,,,,,,,,1,5,14,4,1
c,1,1.7316,,,,,,,,0.6316,,,,,,,,1.1,images/target_cross.jpg,ege,001,2022-12-04_19h59.18.389,choiceRTT,2021.2.3,MacIntel,30.0003,,,,,,,,1,6,15,0,1
v,1,2.5743,,,,,,,,1.4743,,,,,,,,1.1,images/target_square.jpg,ege,001,2022-12-04_19h59.18.389,choiceRTT,2021.2.3,MacIntel,30.0003,,,,,,,,1,7,16,5,1
b,1,1.5761,,,,,,,,0.4761,,,,,,,,1.1,images/target_plus.jpg,ege,001,2022-12-04_19h59.18.389,choiceRTT,2021.2.3,MacIntel,30.0003,,,,,,,,1,8,17,7,1
