participant,session,date,expName,psychopyVersion,OS,frameRate,keyResp.keys,keyResp.corr,keyResp.rt,keyResp.duration,mouseResp.x,mouseResp.y,mouseResp.leftButton,mouseResp.midButton,mouseResp.rightButton,mouseResp.time,mouseResp.clicked_name,trialRespTimes,moveOnKeys.keys,PracticeLoop.thisRepN,PracticeLoop.thisTrialN,PracticeLoop.thisN,PracticeLoop.thisIndex,PracticeLoop.ran,onsetTime,thisImage,correctMouseResp,key_resp.keys,mouse.x,mouse.y,mouse.leftButton,mouse.midButton,mouse.rightButton,ExptLoop.thisRepN,ExptLoop.thisTrialN,ExptLoop.thisN,ExptLoop.thisIndex,ExptLoop.ran
Escoba,001,2023-11-07_19h21.59.154,choiceRTT,2023.1.3,MacIntel,71.42857143,,,,,,,,,,,,,,,,,,,,,,,,,,,,,,,,
Escoba,001,2023-11-07_19h21.59.154,choiceRTT,2023.1.3,MacIntel,71.42857143,v,1,3.316,,,,,,,,,1.816,,0,0,0,2,1,1.5,images/target_square.jpg,,,,,,,,,,,,
Escoba,001,2023-11-07_19h21.59.154,choiceRTT,2023.1.3,MacIntel,71.42857143,c,0,2.52,,,,,,,,,1.22,,0,1,1,1,1,1.3,images/target_plus.jpg,,,,,,,,,,,,
Escoba,001,2023-11-07_19h21.59.154,choiceRTT,2023.1.3,MacIntel,71.42857143,c,1,3.055,,,,,,,,,1.955,,0,2,2,0,1,1.1,images/target_cross.jpg,,,,,,,,,,,,
Escoba,001,2023-11-07_19h21.59.154,choiceRTT,2023.1.3,MacIntel,71.42857143,,0,,,0.218292683,-0.235365854,1,0,0,1.967,plus_button,0.867,,0,3,3,7,1,1.1,images/target_plus.jpg,1,,,,,,,,,,,
Escoba,001,2023-11-07_19h21.59.154,choiceRTT,2023.1.3,MacIntel,71.42857143,,0,,,-0.034146341,-0.236585366,1,0,0,1.982,square_button,0.882,,0,4,4,5,1,1.1,images/target_square.jpg,1,,,,,,,,,,,
Escoba,001,2023-11-07_19h21.59.154,choiceRTT,2023.1.3,MacIntel,71.42857143,,0,,,0.237804878,-0.22804878,1,0,0,2.199,plus_button,0.699,,0,5,5,4,1,1.5,images/target_plus.jpg,1,,,,,,,,,,,
Escoba,001,2023-11-07_19h21.59.154,choiceRTT,2023.1.3,MacIntel,71.42857143,,0,,,-0.223170732,-0.232926829,1,0,0,2.533,cross_button,1.033,,0,6,6,6,1,1.5,images/target_cross.jpg,1,,,,,,,,,,,
Escoba,001,2023-11-07_19h21.59.154,choiceRTT,2023.1.3,MacIntel,71.42857143,,0,,,0.004878049,-0.248780488,1,0,0,1.851,square_button,0.551,,0,7,7,8,1,1.3,images/target_square.jpg,1,,,,,,,,,,,
Escoba,001,2023-11-07_19h21.59.154,choiceRTT,2023.1.3,MacIntel,71.42857143,c,1,2.652,,,,,,,,,1.352,,0,8,8,3,1,1.3,images/target_cross.jpg,,,,,,,,,,,,
Escoba,001,2023-11-07_19h21.59.154,choiceRTT,2023.1.3,MacIntel,71.42857143,,,,,,,,,,,,,,,,,,,,,,,0.031707317,-0.226829268,1,0,0,,,,,
Escoba,001,2023-11-07_19h21.59.154,choiceRTT,2023.1.3,MacIntel,71.42857143,v,1,2.016,,,,,,,,,0.716,,,,,,,1.3,images/target_square.jpg,,,,,,,,0,0,0,8,1
Escoba,001,2023-11-07_19h21.59.154,choiceRTT,2023.1.3,MacIntel,71.42857143,v,1,2.164,,,,,,,,,0.664,,,,,,,1.5,images/target_square.jpg,,,,,,,,0,1,1,2,1
Escoba,001,2023-11-07_19h21.59.154,choiceRTT,2023.1.3,MacIntel,71.42857143,c,1,2.2,,,,,,,,,0.9,,,,,,,1.3,images/target_cross.jpg,,,,,,,,0,2,2,3,1
Escoba,001,2023-11-07_19h21.59.154,choiceRTT,2023.1.3,MacIntel,71.42857143,b,1,2.568,,,,,,,,,1.068,,,,,,,1.5,images/target_plus.jpg,,,,,,,,0,3,3,4,1
Escoba,001,2023-11-07_19h21.59.154,choiceRTT,2023.1.3,MacIntel,71.42857143,b,1,2.256,,,,,,,,,0.956,,,,,,,1.3,images/target_plus.jpg,,,,,,,,0,4,4,1,1
Escoba,001,2023-11-07_19h21.59.154,choiceRTT,2023.1.3,MacIntel,71.42857143,v,1,1.572,,,,,,,,,0.472,,,,,,,1.1,images/target_square.jpg,,,,,,,,0,5,5,5,1
Escoba,001,2023-11-07_19h21.59.154,choiceRTT,2023.1.3,MacIntel,71.42857143,v,0,1.629,,,,,,,,,0.529,,,,,,,1.1,images/target_plus.jpg,,,,,,,,0,6,6,7,1
Escoba,001,2023-11-07_19h21.59.154,choiceRTT,2023.1.3,MacIntel,71.42857143,v,0,2.477,,,,,,,,,0.977,,,,,,,1.5,images/target_cross.jpg,,,,,,,,0,7,7,6,1
Escoba,001,2023-11-07_19h21.59.154,choiceRTT,2023.1.3,MacIntel,71.42857143,c,1,2.094,,,,,,,,,0.994,,,,,,,1.1,images/target_cross.jpg,,,,,,,,0,8,8,0,1
Escoba,001,2023-11-07_19h21.59.154,choiceRTT,2023.1.3,MacIntel,71.42857143,b,1,1.59,,,,,,,,,0.49,,,,,,,1.1,images/target_plus.jpg,,,,,,,,1,0,9,7,1
Escoba,001,2023-11-07_19h21.59.154,choiceRTT,2023.1.3,MacIntel,71.42857143,c,1,2.521,,,,,,,,,1.021,,,,,,,1.5,images/target_cross.jpg,,,,,,,,1,1,10,6,1
Escoba,001,2023-11-07_19h21.59.154,choiceRTT,2023.1.3,MacIntel,71.42857143,b,1,1.857,,,,,,,,,0.557,,,,,,,1.3,images/target_plus.jpg,,,,,,,,1,2,11,1,1
Escoba,001,2023-11-07_19h21.59.154,choiceRTT,2023.1.3,MacIntel,71.42857143,c,1,2.225,,,,,,,,,0.925,,,,,,,1.3,images/target_cross.jpg,,,,,,,,1,3,12,3,1
Escoba,001,2023-11-07_19h21.59.154,choiceRTT,2023.1.3,MacIntel,71.42857143,c,1,1.809,,,,,,,,,0.709,,,,,,,1.1,images/target_cross.jpg,,,,,,,,1,4,13,0,1
Escoba,001,2023-11-07_19h21.59.154,choiceRTT,2023.1.3,MacIntel,71.42857143,v,1,1.938,,,,,,,,,0.838,,,,,,,1.1,images/target_square.jpg,,,,,,,,1,5,14,5,1
Escoba,001,2023-11-07_19h21.59.154,choiceRTT,2023.1.3,MacIntel,71.42857143,v,1,2.57,,,,,,,,,1.07,,,,,,,1.5,images/target_square.jpg,,,,,,,,1,6,15,2,1
Escoba,001,2023-11-07_19h21.59.154,choiceRTT,2023.1.3,MacIntel,71.42857143,b,1,1.989,,,,,,,,,0.489,,,,,,,1.5,images/target_plus.jpg,,,,,,,,1,7,16,4,1
Escoba,001,2023-11-07_19h21.59.154,choiceRTT,2023.1.3,MacIntel,71.42857143,v,1,1.987,,,,,,,,,0.687,,,,,,,1.3,images/target_square.jpg,,,,,,,,1,8,17,8,1
Escoba,001,2023-11-07_19h21.59.154,choiceRTT,2023.1.3,MacIntel,71.42857143,,,,,,,,,,,,,,,,,,,,,,,,,,,,,,,,
