response.keys,response.corr,mouseResp.x,mouseResp.y,mouseResp.leftButton,mouseResp.midButton,mouseResp.rightButton,mouseResp.clicked_name,practiceTrials.thisRepN,practiceTrials.thisTrialN,practiceTrials.thisN,practiceTrials.thisIndex,practiceTrials.ran,practiceTrials.order,isi,xPos,corrAns,participant,session,date,expName,psychopyVersion,frameRate,mainTrials.thisRepN,mainTrials.thisTrialN,mainTrials.thisN,mainTrials.thisIndex,mainTrials.ran,mainTrials.order
,0,0.411440249,-0.024417679,1,0,0,targImage,1,0,8,3,1,7,1,0.375,n,foobar,001,2020-11-20_11h35.27.637,choiceRTT,3.1.3,60,,,,,,
,0,-0.378002025,-0.00797526,1,0,0,targImage,1,0,8,0,1,7,1,-0.375,c,foobar,001,2020-11-20_11h35.27.637,choiceRTT,3.1.3,60,,,,,,
,0,-0.201942274,-0.00838397,1,0,0,targImage,1,0,8,5,1,7,1,-0.125,v,foobar,001,2020-11-20_11h35.27.637,choiceRTT,3.1.3,60,,,,,,
,0,0.133506944,0.012094907,1,0,0,targImage,1,0,8,6,1,7,1,0.125,b,foobar,001,2020-11-20_11h35.27.637,choiceRTT,3.1.3,60,,,,,,
,0,-0.403725405,0.015563513,1,0,0,targImage,1,0,8,4,1,7,1,-0.375,c,foobar,001,2020-11-20_11h35.27.637,choiceRTT,3.1.3,60,,,,,,
,0,0.151114005,0.008091001,1,0,0,targImage,1,0,8,2,1,7,1,0.125,b,foobar,001,2020-11-20_11h35.27.637,choiceRTT,3.1.3,60,,,,,,
,0,0.414673756,-0.005135995,1,0,0,targImage,1,0,8,7,1,7,1,0.375,n,foobar,001,2020-11-20_11h35.27.637,choiceRTT,3.1.3,60,,,,,,
,0,-0.131503183,0.025745081,1,0,0,targImage,1,0,8,1,1,7,1,-0.125,v,foobar,001,2020-11-20_11h35.27.637,choiceRTT,3.1.3,60,,,,,,
,0,-0.103168403,-0.013096788,1,0,0,targImage,,,,,,,1,-0.125,v,foobar,001,2020-11-20_11h35.27.637,choiceRTT,3.1.3,60,1,0,40,1,1,39
,0,-0.117169416,-0.012897859,1,0,0,targImage,,,,,,,1.4444,-0.125,v,foobar,001,2020-11-20_11h35.27.637,choiceRTT,3.1.3,60,1,0,40,9,1,39
,0,-0.380302373,0.043261719,1,0,0,targImage,,,,,,,1.8888,-0.375,c,foobar,001,2020-11-20_11h35.27.637,choiceRTT,3.1.3,60,1,0,40,16,1,39
,0,-0.202336516,0.024367043,1,0,0,targImage,,,,,,,2.9998,-0.125,v,foobar,001,2020-11-20_11h35.27.637,choiceRTT,3.1.3,60,1,0,40,37,1,39
,0,0.093142361,-0.010026042,1,0,0,targImage,,,,,,,2.7776,0.125,b,foobar,001,2020-11-20_11h35.27.637,choiceRTT,3.1.3,60,1,0,40,34,1,39
,0,0.343601707,-0.009997106,1,0,0,targImage,,,,,,,2.3332,0.375,n,foobar,001,2020-11-20_11h35.27.637,choiceRTT,3.1.3,60,1,0,40,27,1,39
,0,-0.330960648,0.006213831,1,0,0,targImage,,,,,,,2.7776,-0.375,c,foobar,001,2020-11-20_11h35.27.637,choiceRTT,3.1.3,60,1,0,40,32,1,39
,0,-0.081528501,-0.014894387,1,0,0,targImage,,,,,,,2.111,-0.125,v,foobar,001,2020-11-20_11h35.27.637,choiceRTT,3.1.3,60,1,0,40,21,1,39
,0,-0.081448929,-0.014894387,1,0,0,targImage,,,,,,,2.5554,-0.125,v,foobar,001,2020-11-20_11h35.27.637,choiceRTT,3.1.3,60,1,0,40,29,1,39
,0,0.349515336,-0.010691551,1,0,0,targImage,,,,,,,2.111,0.375,n,foobar,001,2020-11-20_11h35.27.637,choiceRTT,3.1.3,60,1,0,40,23,1,39
,0,0.093554687,0.001522714,1,0,0,targImage,,,,,,,2.111,0.125,b,foobar,001,2020-11-20_11h35.27.637,choiceRTT,3.1.3,60,1,0,40,22,1,39
,0,-0.114301215,0.001280382,1,0,0,targImage,,,,,,,2.7776,-0.125,v,foobar,001,2020-11-20_11h35.27.637,choiceRTT,3.1.3,60,1,0,40,33,1,39
,0,-0.407356771,0.012076823,1,0,0,targImage,,,,,,,1.2222,-0.375,c,foobar,001,2020-11-20_11h35.27.637,choiceRTT,3.1.3,60,1,0,40,4,1,39
,0,-0.096708623,0.005841291,1,0,0,targImage,,,,,,,2.3332,-0.125,v,foobar,001,2020-11-20_11h35.27.637,choiceRTT,3.1.3,60,1,0,40,25,1,39
,0,0.419831453,-0.021582031,1,0,0,targImage,,,,,,,1.4444,0.375,n,foobar,001,2020-11-20_11h35.27.637,choiceRTT,3.1.3,60,1,0,40,11,1,39
,0,-0.035474537,-0.005371094,1,0,0,targImage,,,,,,,1.8888,-0.125,v,foobar,001,2020-11-20_11h35.27.637,choiceRTT,3.1.3,60,1,0,40,17,1,39
,0,0.353374566,-0.015813079,1,0,0,targImage,,,,,,,1,0.375,n,foobar,001,2020-11-20_11h35.27.637,choiceRTT,3.1.3,60,1,0,40,3,1,39
,0,0.036801939,-0.005975116,1,0,0,targImage,,,,,,,2.9998,0.125,b,foobar,001,2020-11-20_11h35.27.637,choiceRTT,3.1.3,60,1,0,40,38,1,39
,0,-0.386664497,-0.001302083,1,0,0,targImage,,,,,,,2.3332,-0.375,c,foobar,001,2020-11-20_11h35.27.637,choiceRTT,3.1.3,60,1,0,40,24,1,39
,0,0.436838108,-0.007584635,1,0,0,targImage,,,,,,,2.7776,0.375,n,foobar,001,2020-11-20_11h35.27.637,choiceRTT,3.1.3,60,1,0,40,35,1,39
,0,0.428884549,-0.008228443,1,0,0,targImage,,,,,,,1.6666,0.375,n,foobar,001,2020-11-20_11h35.27.637,choiceRTT,3.1.3,60,1,0,40,15,1,39
,0,-0.358152488,0.025473814,1,0,0,targImage,,,,,,,2.5554,-0.375,c,foobar,001,2020-11-20_11h35.27.637,choiceRTT,3.1.3,60,1,0,40,28,1,39
,0,0.099913194,0.013624855,1,0,0,targImage,,,,,,,2.5554,0.125,b,foobar,001,2020-11-20_11h35.27.637,choiceRTT,3.1.3,60,1,0,40,30,1,39
,0,-0.373607494,0.015972222,1,0,0,targImage,,,,,,,1.4444,-0.375,c,foobar,001,2020-11-20_11h35.27.637,choiceRTT,3.1.3,60,1,0,40,8,1,39
,0,0.348661748,-0.003023727,1,0,0,targImage,,,,,,,2.9998,0.375,n,foobar,001,2020-11-20_11h35.27.637,choiceRTT,3.1.3,60,1,0,40,39,1,39
,0,-0.222041377,-0.01307147,1,0,0,targImage,,,,,,,1.2222,-0.125,v,foobar,001,2020-11-20_11h35.27.637,choiceRTT,3.1.3,60,1,0,40,5,1,39
,0,0.181969763,-0.028761574,1,0,0,targImage,,,,,,,1.8888,0.125,b,foobar,001,2020-11-20_11h35.27.637,choiceRTT,3.1.3,60,1,0,40,18,1,39
,0,0.469882089,-0.006987847,1,0,0,targImage,,,,,,,1.2222,0.375,n,foobar,001,2020-11-20_11h35.27.637,choiceRTT,3.1.3,60,1,0,40,7,1,39
,0,0.424301939,-0.019411892,1,0,0,targImage,,,,,,,1.8888,0.375,n,foobar,001,2020-11-20_11h35.27.637,choiceRTT,3.1.3,60,1,0,40,19,1,39
,0,0.132150608,-0.012268519,1,0,0,targImage,,,,,,,1.6666,0.125,b,foobar,001,2020-11-20_11h35.27.637,choiceRTT,3.1.3,60,1,0,40,14,1,39
,0,0.132150608,-0.012268519,1,0,0,targImage,,,,,,,1.2222,0.125,b,foobar,001,2020-11-20_11h35.27.637,choiceRTT,3.1.3,60,1,0,40,6,1,39
,0,-0.096759259,-0.001750579,1,0,0,targImage,,,,,,,1.6666,-0.125,v,foobar,001,2020-11-20_11h35.27.637,choiceRTT,3.1.3,60,1,0,40,13,1,39
,0,-0.34729456,0.006861256,1,0,0,targImage,,,,,,,1,-0.375,c,foobar,001,2020-11-20_11h35.27.637,choiceRTT,3.1.3,60,1,0,40,0,1,39
,0,0.447981771,-0.00614511,1,0,0,targImage,,,,,,,2.5554,0.375,n,foobar,001,2020-11-20_11h35.27.637,choiceRTT,3.1.3,60,1,0,40,31,1,39
,0,-0.397753906,0.008655237,1,0,0,targImage,,,,,,,1.6666,-0.375,c,foobar,001,2020-11-20_11h35.27.637,choiceRTT,3.1.3,60,1,0,40,12,1,39
,0,0.137905093,-0.008347801,1,0,0,targImage,,,,,,,1,0.125,b,foobar,001,2020-11-20_11h35.27.637,choiceRTT,3.1.3,60,1,0,40,2,1,39
,0,-0.352260561,0.014286748,1,0,0,targImage,,,,,,,2.111,-0.375,c,foobar,001,2020-11-20_11h35.27.637,choiceRTT,3.1.3,60,1,0,40,20,1,39
,0,0.108402054,-0.001660156,1,0,0,targImage,,,,,,,2.3332,0.125,b,foobar,001,2020-11-20_11h35.27.637,choiceRTT,3.1.3,60,1,0,40,26,1,39
,0,-0.302806713,0.004767072,1,0,0,targImage,,,,,,,2.9998,-0.375,c,foobar,001,2020-11-20_11h35.27.637,choiceRTT,3.1.3,60,1,0,40,36,1,39
,0,0.132418258,0.000535301,1,0,0,targImage,,,,,,,1.4444,0.125,b,foobar,001,2020-11-20_11h35.27.637,choiceRTT,3.1.3,60,1,0,40,10,1,39
