response.keys,response.corr,mouseResp.x,mouseResp.y,mouseResp.leftButton,mouseResp.midButton,mouseResp.rightButton,mouseResp.clicked_name,practiceTrials.thisRepN,practiceTrials.thisTrialN,practiceTrials.thisN,practiceTrials.thisIndex,practiceTrials.ran,practiceTrials.order,isi,xPos,corrAns,participant,session,date,expName,psychopyVersion,frameRate,mainTrials.thisRepN,mainTrials.thisTrialN,mainTrials.thisN,mainTrials.thisIndex,mainTrials.ran,mainTrials.order
,0,0.147222222,-0.005555556,1,0,0,targImage,1,0,8,2,1,7,1,0.125,b,Fra,001,2020-03-18_20h06.00.490,choiceRTT,3.1.3,60,,,,,,
,0,-0.389814811,0.055555556,1,0,0,targImage,1,0,8,4,1,7,1,-0.375,c,Fra,001,2020-03-18_20h06.00.490,choiceRTT,3.1.3,60,,,,,,
,0,0.349074131,-0.005555556,1,0,0,targImage,1,0,8,7,1,7,1,0.375,n,Fra,001,2020-03-18_20h06.00.490,choiceRTT,3.1.3,60,,,,,,
,0,-0.150925912,-0.034259288,1,0,0,targImage,1,0,8,1,1,7,1,-0.125,v,Fra,001,2020-03-18_20h06.00.490,choiceRTT,3.1.3,60,,,,,,
,0,0.392592621,-0.016666667,1,0,0,targImage,1,0,8,3,1,7,1,0.375,n,Fra,001,2020-03-18_20h06.00.490,choiceRTT,3.1.3,60,,,,,,
,0,-0.337962935,0.00370369,1,0,0,targImage,1,0,8,0,1,7,1,-0.375,c,Fra,001,2020-03-18_20h06.00.490,choiceRTT,3.1.3,60,,,,,,
,0,-0.133333333,-0.041666667,1,0,0,targImage,1,0,8,5,1,7,1,-0.125,v,Fra,001,2020-03-18_20h06.00.490,choiceRTT,3.1.3,60,,,,,,
,0,0.136111111,-0.037962977,1,0,0,targImage,1,0,8,6,1,7,1,0.125,b,Fra,001,2020-03-18_20h06.00.490,choiceRTT,3.1.3,60,,,,,,
,0,0.408333333,0.02870369,1,0,0,targImage,,,,,,,2.3332,0.375,n,Fra,001,2020-03-18_20h06.00.490,choiceRTT,3.1.3,60,1,0,40,27,1,39
,0,0.161111111,-0.016666667,1,0,0,targImage,,,,,,,2.111,0.125,b,Fra,001,2020-03-18_20h06.00.490,choiceRTT,3.1.3,60,1,0,40,22,1,39
,0,0.164814843,-0.020370399,1,0,0,targImage,,,,,,,1.6666,0.125,b,Fra,001,2020-03-18_20h06.00.490,choiceRTT,3.1.3,60,1,0,40,14,1,39
,0,0.136111111,-0.008333333,1,0,0,targImage,,,,,,,2.3332,0.125,b,Fra,001,2020-03-18_20h06.00.490,choiceRTT,3.1.3,60,1,0,40,26,1,39
,0,0.110185242,-0.022222222,1,0,0,targImage,,,,,,,1,0.125,b,Fra,001,2020-03-18_20h06.00.490,choiceRTT,3.1.3,60,1,0,40,2,1,39
,0,-0.391666667,-0.024074088,1,0,0,targImage,,,,,,,1.8888,-0.375,c,Fra,001,2020-03-18_20h06.00.490,choiceRTT,3.1.3,60,1,0,40,16,1,39
,0,0.386111111,0.049074046,1,0,0,targImage,,,,,,,1.8888,0.375,n,Fra,001,2020-03-18_20h06.00.490,choiceRTT,3.1.3,60,1,0,40,19,1,39
,0,-0.119444444,0.006481467,1,0,0,targImage,,,,,,,2.111,-0.125,v,Fra,001,2020-03-18_20h06.00.490,choiceRTT,3.1.3,60,1,0,40,21,1,39
,0,0.403703817,-0.03148151,1,0,0,targImage,,,,,,,1,0.375,n,Fra,001,2020-03-18_20h06.00.490,choiceRTT,3.1.3,60,1,0,40,3,1,39
,0,0.358333333,-0.007407422,1,0,0,targImage,,,,,,,2.5554,0.375,n,Fra,001,2020-03-18_20h06.00.490,choiceRTT,3.1.3,60,1,0,40,31,1,39
,0,0.412963019,-0.037962977,1,0,0,targImage,,,,,,,1.4444,0.375,n,Fra,001,2020-03-18_20h06.00.490,choiceRTT,3.1.3,60,1,0,40,11,1,39
,0,-0.375925912,-0.016666667,1,0,0,targImage,,,,,,,2.5554,-0.375,c,Fra,001,2020-03-18_20h06.00.490,choiceRTT,3.1.3,60,1,0,40,28,1,39
,0,-0.29351849,-0.03148151,1,0,0,targImage,,,,,,,1.2222,-0.375,c,Fra,001,2020-03-18_20h06.00.490,choiceRTT,3.1.3,60,1,0,40,4,1,39
,0,0.389814928,-0.058333333,1,0,0,targImage,,,,,,,2.7776,0.375,n,Fra,001,2020-03-18_20h06.00.490,choiceRTT,3.1.3,60,1,0,40,35,1,39
,0,-0.125925869,-0.032407422,1,0,0,targImage,,,,,,,2.3332,-0.125,v,Fra,001,2020-03-18_20h06.00.490,choiceRTT,3.1.3,60,1,0,40,25,1,39
,0,-0.153703647,-0.035185199,1,0,0,targImage,,,,,,,1.4444,-0.125,v,Fra,001,2020-03-18_20h06.00.490,choiceRTT,3.1.3,60,1,0,40,9,1,39
,0,-0.161111111,-0.09629631,1,0,0,targImage,,,,,,,1.6666,-0.125,v,Fra,001,2020-03-18_20h06.00.490,choiceRTT,3.1.3,60,1,0,40,13,1,39
,0,-0.383333333,-0.075925954,1,0,0,targImage,,,,,,,1,-0.375,c,Fra,001,2020-03-18_20h06.00.490,choiceRTT,3.1.3,60,1,0,40,0,1,39
,0,-0.396296268,-0.039814843,1,0,0,targImage,,,,,,,2.111,-0.375,c,Fra,001,2020-03-18_20h06.00.490,choiceRTT,3.1.3,60,1,0,40,20,1,39
,0,0.393518575,-0.000925954,1,0,0,targImage,,,,,,,1.2222,0.375,n,Fra,001,2020-03-18_20h06.00.490,choiceRTT,3.1.3,60,1,0,40,7,1,39
,0,0.099074131,0.006481467,1,0,0,targImage,,,,,,,1.2222,0.125,b,Fra,001,2020-03-18_20h06.00.490,choiceRTT,3.1.3,60,1,0,40,6,1,39
,0,0.074074131,0.012962935,1,0,0,targImage,,,,,,,1.8888,0.125,b,Fra,001,2020-03-18_20h06.00.490,choiceRTT,3.1.3,60,1,0,40,18,1,39
,0,-0.162962935,-0.044444444,1,0,0,targImage,,,,,,,1.8888,-0.125,v,Fra,001,2020-03-18_20h06.00.490,choiceRTT,3.1.3,60,1,0,40,17,1,39
,0,0.335185242,-0.042592621,1,0,0,targImage,,,,,,,2.9998,0.375,n,Fra,001,2020-03-18_20h06.00.490,choiceRTT,3.1.3,60,1,0,40,39,1,39
,0,-0.381481467,-0.036111111,1,0,0,targImage,,,,,,,2.3332,-0.375,c,Fra,001,2020-03-18_20h06.00.490,choiceRTT,3.1.3,60,1,0,40,24,1,39
,0,0.388888889,-0.020370399,1,0,0,targImage,,,,,,,1.6666,0.375,n,Fra,001,2020-03-18_20h06.00.490,choiceRTT,3.1.3,60,1,0,40,15,1,39
,0,0.183333333,0.025,1,0,0,targImage,,,,,,,2.7776,0.125,b,Fra,001,2020-03-18_20h06.00.490,choiceRTT,3.1.3,60,1,0,40,34,1,39
,0,-0.161111111,-0.048148176,1,0,0,targImage,,,,,,,2.9998,-0.125,v,Fra,001,2020-03-18_20h06.00.490,choiceRTT,3.1.3,60,1,0,40,37,1,39
,0,0.152777778,0.062037023,1,0,0,targImage,,,,,,,1.4444,0.125,b,Fra,001,2020-03-18_20h06.00.490,choiceRTT,3.1.3,60,1,0,40,10,1,39
,0,-0.416666667,-0.05648151,1,0,0,targImage,,,,,,,1.6666,-0.375,c,Fra,001,2020-03-18_20h06.00.490,choiceRTT,3.1.3,60,1,0,40,12,1,39
,0,-0.132407379,-0.030555556,1,0,0,targImage,,,,,,,1.2222,-0.125,v,Fra,001,2020-03-18_20h06.00.490,choiceRTT,3.1.3,60,1,0,40,5,1,39
,0,-0.110185157,-0.012962977,1,0,0,targImage,,,,,,,2.7776,-0.125,v,Fra,001,2020-03-18_20h06.00.490,choiceRTT,3.1.3,60,1,0,40,33,1,39
,0,0.365740797,0.044444444,1,0,0,targImage,,,,,,,2.111,0.375,n,Fra,001,2020-03-18_20h06.00.490,choiceRTT,3.1.3,60,1,0,40,23,1,39
,0,-0.095370314,0.035185157,1,0,0,targImage,,,,,,,1,-0.125,v,Fra,001,2020-03-18_20h06.00.490,choiceRTT,3.1.3,60,1,0,40,1,1,39
,0,0.135185242,-0.024074088,1,0,0,targImage,,,,,,,2.5554,0.125,b,Fra,001,2020-03-18_20h06.00.490,choiceRTT,3.1.3,60,1,0,40,30,1,39
,0,-0.322222222,0.002777778,1,0,0,targImage,,,,,,,2.9998,-0.375,c,Fra,001,2020-03-18_20h06.00.490,choiceRTT,3.1.3,60,1,0,40,36,1,39
,0,-0.099074046,-0.020370399,1,0,0,targImage,,,,,,,2.5554,-0.125,v,Fra,001,2020-03-18_20h06.00.490,choiceRTT,3.1.3,60,1,0,40,29,1,39
,0,-0.367592578,-0.028703732,1,0,0,targImage,,,,,,,1.4444,-0.375,c,Fra,001,2020-03-18_20h06.00.490,choiceRTT,3.1.3,60,1,0,40,8,1,39
,0,-0.388888889,0.019444444,1,0,0,targImage,,,,,,,2.7776,-0.375,c,Fra,001,2020-03-18_20h06.00.490,choiceRTT,3.1.3,60,1,0,40,32,1,39
,0,0.185185242,-0.029629644,1,0,0,targImage,,,,,,,2.9998,0.125,b,Fra,001,2020-03-18_20h06.00.490,choiceRTT,3.1.3,60,1,0,40,38,1,39
