participant,session,date,expName,psychopyVersion,OS,frameRate,keyResp.keys,keyResp.corr,keyResp.rt,keyResp.duration,mouseResp.x,mouseResp.y,mouseResp.leftButton,mouseResp.midButton,mouseResp.rightButton,mouseResp.time,mouseResp.clicked_name,trialRespTimes,moveOnKeys.keys,PracticeLoop.thisRepN,PracticeLoop.thisTrialN,PracticeLoop.thisN,PracticeLoop.thisIndex,PracticeLoop.ran,onsetTime,thisImage,key_resp.keys,mouse.x,mouse.y,mouse.leftButton,mouse.midButton,mouse.rightButton,ExptLoop.thisRepN,ExptLoop.thisTrialN,ExptLoop.thisN,ExptLoop.thisIndex,ExptLoop.ran
frefre,001,2023-12-02_16h27.42.991,choiceRTT,2023.1.3,Win32,60.11060351,,,,,,,,,,,,,,,,,,,,,,,,,,,,,,,
frefre,001,2023-12-02_16h27.42.991,choiceRTT,2023.1.3,Win32,60.11060351,v,1,5.3993,,,,,,,,,3.8993,,0,0,0,2,1,1.5,images/target_square.jpg,,,,,,,,,,,
frefre,001,2023-12-02_16h27.42.991,choiceRTT,2023.1.3,Win32,60.11060351,c,1,3.9469,,,,,,,,,2.4469,,0,1,1,6,1,1.5,images/target_cross.jpg,,,,,,,,,,,
frefre,001,2023-12-02_16h27.42.991,choiceRTT,2023.1.3,Win32,60.11060351,b,1,3.5657,,,,,,,,,2.0657,,0,2,2,4,1,1.5,images/target_plus.jpg,,,,,,,,,,,
frefre,001,2023-12-02_16h27.42.991,choiceRTT,2023.1.3,Win32,60.11060351,v,1,2.1098,,,,,,,,,0.8098,,0,3,3,8,1,1.3,images/target_square.jpg,,,,,,,,,,,
frefre,001,2023-12-02_16h27.42.991,choiceRTT,2023.1.3,Win32,60.11060351,b,1,2.0713,,,,,,,,,0.7713,,0,4,4,1,1,1.3,images/target_plus.jpg,,,,,,,,,,,
frefre,001,2023-12-02_16h27.42.991,choiceRTT,2023.1.3,Win32,60.11060351,c,1,3.2483,,,,,,,,,2.1483,,0,5,5,0,1,1.1,images/target_cross.jpg,,,,,,,,,,,
frefre,001,2023-12-02_16h27.42.991,choiceRTT,2023.1.3,Win32,60.11060351,b,1,1.9588,,,,,,,,,0.8588,,0,6,6,7,1,1.1,images/target_plus.jpg,,,,,,,,,,,
frefre,001,2023-12-02_16h27.42.991,choiceRTT,2023.1.3,Win32,60.11060351,c,1,2.0665,,,,,,,,,0.7665,,0,7,7,3,1,1.3,images/target_cross.jpg,,,,,,,,,,,
frefre,001,2023-12-02_16h27.42.991,choiceRTT,2023.1.3,Win32,60.11060351,v,1,1.9773,,,,,,,,,0.8773,,0,8,8,5,1,1.1,images/target_square.jpg,,,,,,,,,,,
frefre,001,2023-12-02_16h27.42.991,choiceRTT,2023.1.3,Win32,60.11060351,,,,,,,,,,,,,,,,,,,,,,-0.012037037,-0.239814815,1,0,0,,,,,
frefre,001,2023-12-02_16h27.42.991,choiceRTT,2023.1.3,Win32,60.11060351,v,1,3.291,,,,,,,,,1.791,,,,,,,1.5,images/target_square.jpg,,,,,,,0,0,0,2,1
frefre,001,2023-12-02_16h27.42.991,choiceRTT,2023.1.3,Win32,60.11060351,c,1,2.1892,,,,,,,,,1.0892,,,,,,,1.1,images/target_cross.jpg,,,,,,,0,1,1,0,1
frefre,001,2023-12-02_16h27.42.991,choiceRTT,2023.1.3,Win32,60.11060351,v,1,1.9312,,,,,,,,,0.6312,,,,,,,1.3,images/target_square.jpg,,,,,,,0,2,2,8,1
frefre,001,2023-12-02_16h27.42.991,choiceRTT,2023.1.3,Win32,60.11060351,b,1,2.2767,,,,,,,,,0.7767,,,,,,,1.5,images/target_plus.jpg,,,,,,,0,3,3,4,1
frefre,001,2023-12-02_16h27.42.991,choiceRTT,2023.1.3,Win32,60.11060351,b,1,1.9439,,,,,,,,,0.8439,,,,,,,1.1,images/target_plus.jpg,,,,,,,0,4,4,7,1
frefre,001,2023-12-02_16h27.42.991,choiceRTT,2023.1.3,Win32,60.11060351,v,1,1.8684,,,,,,,,,0.7684,,,,,,,1.1,images/target_square.jpg,,,,,,,0,5,5,5,1
frefre,001,2023-12-02_16h27.42.991,choiceRTT,2023.1.3,Win32,60.11060351,b,1,2.2127,,,,,,,,,0.9127,,,,,,,1.3,images/target_plus.jpg,,,,,,,0,6,6,1,1
frefre,001,2023-12-02_16h27.42.991,choiceRTT,2023.1.3,Win32,60.11060351,c,1,1.9359,,,,,,,,,0.6359,,,,,,,1.3,images/target_cross.jpg,,,,,,,0,7,7,3,1
frefre,001,2023-12-02_16h27.42.991,choiceRTT,2023.1.3,Win32,60.11060351,c,1,2.4495,,,,,,,,,0.9495,,,,,,,1.5,images/target_cross.jpg,,,,,,,0,8,8,6,1
frefre,001,2023-12-02_16h27.42.991,choiceRTT,2023.1.3,Win32,60.11060351,c,1,2.201,,,,,,,,,0.701,,,,,,,1.5,images/target_cross.jpg,,,,,,,1,0,9,6,1
frefre,001,2023-12-02_16h27.42.991,choiceRTT,2023.1.3,Win32,60.11060351,b,1,2.961,,,,,,,,,1.661,,,,,,,1.3,images/target_plus.jpg,,,,,,,1,1,10,1,1
frefre,001,2023-12-02_16h27.42.991,choiceRTT,2023.1.3,Win32,60.11060351,v,1,2.1909,,,,,,,,,0.8909,,,,,,,1.3,images/target_square.jpg,,,,,,,1,2,11,8,1
frefre,001,2023-12-02_16h27.42.991,choiceRTT,2023.1.3,Win32,60.11060351,v,1,1.7421,,,,,,,,,0.6421,,,,,,,1.1,images/target_square.jpg,,,,,,,1,3,12,5,1
frefre,001,2023-12-02_16h27.42.991,choiceRTT,2023.1.3,Win32,60.11060351,c,1,1.9744,,,,,,,,,0.6744,,,,,,,1.3,images/target_cross.jpg,,,,,,,1,4,13,3,1
frefre,001,2023-12-02_16h27.42.991,choiceRTT,2023.1.3,Win32,60.11060351,b,0,2.3841,,,,,,,,,0.8841,,,,,,,1.5,images/target_square.jpg,,,,,,,1,5,14,2,1
frefre,001,2023-12-02_16h27.42.991,choiceRTT,2023.1.3,Win32,60.11060351,b,1,2.8186,,,,,,,,,1.7186,,,,,,,1.1,images/target_plus.jpg,,,,,,,1,6,15,7,1
frefre,001,2023-12-02_16h27.42.991,choiceRTT,2023.1.3,Win32,60.11060351,b,1,2.4762,,,,,,,,,0.9762,,,,,,,1.5,images/target_plus.jpg,,,,,,,1,7,16,4,1
frefre,001,2023-12-02_16h27.42.991,choiceRTT,2023.1.3,Win32,60.11060351,c,1,1.9999,,,,,,,,,0.8999,,,,,,,1.1,images/target_cross.jpg,,,,,,,1,8,17,0,1
frefre,001,2023-12-02_16h27.42.991,choiceRTT,2023.1.3,Win32,60.11060351,,,,,,,,,,,,,,,,,,,,,,,,,,,,,,,
