participant,session,date,expName,psychopyVersion,OS,frameRate,keyResp.keys,keyResp.corr,mouseResp.x,mouseResp.y,mouseResp.leftButton,mouseResp.midButton,mouseResp.rightButton,mouseResp.time,mouseResp.clicked_name,correctMouseResp,trialRespTimes,moveOnKeys.keys,PracticeLoop.thisRepN,PracticeLoop.thisTrialN,PracticeLoop.thisN,PracticeLoop.thisIndex,PracticeLoop.ran,onsetTime,thisImage,keyResp.rt,keyResp.duration,key_resp.keys,key_resp.rt,key_resp.duration,mouse.x,mouse.y,mouse.leftButton,mouse.midButton,mouse.rightButton,ExptLoop.thisRepN,ExptLoop.thisTrialN,ExptLoop.thisN,ExptLoop.thisIndex,ExptLoop.ran
Ian,001,2024-01-12_19h57.55.199,choiceRTT,2023.1.3,Win32,61.34969325,,,,,,,,,,,,,,,,,,,,,,,,,,,,,,,,,,
Ian,001,2024-01-12_19h57.55.199,choiceRTT,2023.1.3,Win32,61.34969325,,0,-0.001157407,-0.239583333,1,0,0,3.733,square_button,1,2.633,,0,0,0,5,1,1.1,images/target_square.jpg,,,,,,,,,,,,,,,
Ian,001,2024-01-12_19h57.55.199,choiceRTT,2023.1.3,Win32,61.34969325,,0,-0.237268519,-0.252314815,1,0,0,3.526,cross_button,1,2.226,,0,1,1,3,1,1.3,images/target_cross.jpg,,,,,,,,,,,,,,,
Ian,001,2024-01-12_19h57.55.199,choiceRTT,2023.1.3,Win32,61.34969325,,0,-0.244212963,-0.215277778,1,0,0,1.898,cross_button,1,0.798,,0,2,2,0,1,1.1,images/target_cross.jpg,,,,,,,,,,,,,,,
Ian,001,2024-01-12_19h57.55.199,choiceRTT,2023.1.3,Win32,61.34969325,,0,0.082175926,-0.243055556,1,0,0,2.564,square_button,1,1.264,,0,3,3,8,1,1.3,images/target_square.jpg,,,,,,,,,,,,,,,
Ian,001,2024-01-12_19h57.55.199,choiceRTT,2023.1.3,Win32,61.34969325,,0,0.284722222,-0.266203704,1,0,0,2.629,plus_button,1,1.129,,0,4,4,4,1,1.5,images/target_plus.jpg,,,,,,,,,,,,,,,
Ian,001,2024-01-12_19h57.55.199,choiceRTT,2023.1.3,Win32,61.34969325,,0,0.045138889,-0.25462963,1,0,0,2.896,square_button,1,1.396,,0,5,5,2,1,1.5,images/target_square.jpg,,,,,,,,,,,,,,,
Ian,001,2024-01-12_19h57.55.199,choiceRTT,2023.1.3,Win32,61.34969325,v,0,,,,,,,,,1.022,,0,6,6,1,1,1.3,images/target_plus.jpg,2.322,,,,,,,,,,,,,,
Ian,001,2024-01-12_19h57.55.199,choiceRTT,2023.1.3,Win32,61.34969325,,0,-0.178240741,-0.263888889,1,0,0,2.647,cross_button,1,1.147,,0,7,7,6,1,1.5,images/target_cross.jpg,,,,,,,,,,,,,,,
Ian,001,2024-01-12_19h57.55.199,choiceRTT,2023.1.3,Win32,61.34969325,,0,-0.025462963,-0.261574074,1,0,0,2.16,square_button,0,1.06,,0,8,8,7,1,1.1,images/target_plus.jpg,,,,,,,,,,,,,,,
Ian,001,2024-01-12_19h57.55.199,choiceRTT,2023.1.3,Win32,61.34969325,,,,,,,,,,,,,,,,,,,,,,space,13.199,,0.020833333,-0.30787037,0,0,0,,,,,
Ian,001,2024-01-12_19h57.55.199,choiceRTT,2023.1.3,Win32,61.34969325,,0,0.201388889,-0.275462963,1,0,0,2.604,plus_button,1,1.104,,,,,,,1.5,images/target_plus.jpg,,,,,,,,,,,0,0,0,4,1
Ian,001,2024-01-12_19h57.55.199,choiceRTT,2023.1.3,Win32,61.34969325,,0,-0.019675926,-0.251157407,1,0,0,2.414,square_button,1,0.914,,,,,,,1.5,images/target_square.jpg,,,,,,,,,,,0,1,1,2,1
Ian,001,2024-01-12_19h57.55.199,choiceRTT,2023.1.3,Win32,61.34969325,,0,0.208333333,-0.266203704,1,0,0,2.247,plus_button,1,1.147,,,,,,,1.1,images/target_plus.jpg,,,,,,,,,,,0,2,2,7,1
Ian,001,2024-01-12_19h57.55.199,choiceRTT,2023.1.3,Win32,61.34969325,,0,-0.261574074,-0.247685185,1,0,0,2.247,cross_button,1,0.947,,,,,,,1.3,images/target_cross.jpg,,,,,,,,,,,0,3,3,3,1
Ian,001,2024-01-12_19h57.55.199,choiceRTT,2023.1.3,Win32,61.34969325,,0,-0.203703704,-0.266203704,1,0,0,2.694,cross_button,1,1.194,,,,,,,1.5,images/target_cross.jpg,,,,,,,,,,,0,4,4,6,1
Ian,001,2024-01-12_19h57.55.199,choiceRTT,2023.1.3,Win32,61.34969325,,0,0.266203704,-0.239583333,1,0,0,2.546,plus_button,1,1.246,,,,,,,1.3,images/target_plus.jpg,,,,,,,,,,,0,5,5,1,1
Ian,001,2024-01-12_19h57.55.199,choiceRTT,2023.1.3,Win32,61.34969325,,0,-0.03587963,-0.263888889,1,0,0,1.948,square_button,1,0.848,,,,,,,1.1,images/target_square.jpg,,,,,,,,,,,0,6,6,5,1
Ian,001,2024-01-12_19h57.55.199,choiceRTT,2023.1.3,Win32,61.34969325,,0,-0.002314815,-0.275462963,1,0,0,2.113,square_button,1,0.813,,,,,,,1.3,images/target_square.jpg,,,,,,,,,,,0,7,7,8,1
Ian,001,2024-01-12_19h57.55.199,choiceRTT,2023.1.3,Win32,61.34969325,,0,-0.275462963,-0.275462963,1,0,0,2.065,cross_button,1,0.965,,,,,,,1.1,images/target_cross.jpg,,,,,,,,,,,0,8,8,0,1
Ian,001,2024-01-12_19h57.55.199,choiceRTT,2023.1.3,Win32,61.34969325,,0,-0.215277778,-0.273148148,1,0,0,2.08,cross_button,1,0.78,,,,,,,1.3,images/target_cross.jpg,,,,,,,,,,,1,0,9,3,1
Ian,001,2024-01-12_19h57.55.199,choiceRTT,2023.1.3,Win32,61.34969325,,0,-0.048611111,-0.246527778,1,0,0,2.381,square_button,1,0.881,,,,,,,1.5,images/target_square.jpg,,,,,,,,,,,1,1,10,2,1
Ian,001,2024-01-12_19h57.55.199,choiceRTT,2023.1.3,Win32,61.34969325,,0,-0.052083333,-0.251157407,1,0,0,2.247,square_button,1,0.947,,,,,,,1.3,images/target_square.jpg,,,,,,,,,,,1,2,11,8,1
Ian,001,2024-01-12_19h57.55.199,choiceRTT,2023.1.3,Win32,61.34969325,,0,0.310185185,-0.277777778,1,0,0,2.015,plus_button,1,0.915,,,,,,,1.1,images/target_plus.jpg,,,,,,,,,,,1,3,12,7,1
Ian,001,2024-01-12_19h57.55.199,choiceRTT,2023.1.3,Win32,61.34969325,,0,-0.018518519,-0.24537037,1,0,0,1.914,square_button,1,0.814,,,,,,,1.1,images/target_square.jpg,,,,,,,,,,,1,4,13,5,1
Ian,001,2024-01-12_19h57.55.199,choiceRTT,2023.1.3,Win32,61.34969325,,0,-0.190972222,-0.282407407,1,0,0,2.463,cross_button,1,0.963,,,,,,,1.5,images/target_cross.jpg,,,,,,,,,,,1,5,14,6,1
Ian,001,2024-01-12_19h57.55.199,choiceRTT,2023.1.3,Win32,61.34969325,,0,0.226851852,-0.230324074,1,0,0,2.58,plus_button,1,1.28,,,,,,,1.3,images/target_plus.jpg,,,,,,,,,,,1,6,15,1,1
Ian,001,2024-01-12_19h57.55.199,choiceRTT,2023.1.3,Win32,61.34969325,,0,0.186342593,-0.268518519,1,0,0,2.663,plus_button,1,1.163,,,,,,,1.5,images/target_plus.jpg,,,,,,,,,,,1,7,16,4,1
Ian,001,2024-01-12_19h57.55.199,choiceRTT,2023.1.3,Win32,61.34969325,,0,-0.296296296,-0.252314815,1,0,0,2.081,cross_button,1,0.981,,,,,,,1.1,images/target_cross.jpg,,,,,,,,,,,1,8,17,0,1
Ian,001,2024-01-12_19h57.55.199,choiceRTT,2023.1.3,Win32,61.34969325,,,,,,,,,,,,,,,,,,,,,,,,,,,,,,,,,,
