response.keys,response.corr,mouseResp.x,mouseResp.y,mouseResp.leftButton,mouseResp.midButton,mouseResp.rightButton,mouseResp.clicked_name,practiceTrials.thisRepN,practiceTrials.thisTrialN,practiceTrials.thisN,practiceTrials.thisIndex,practiceTrials.ran,practiceTrials.order,isi,xPos,corrAns,participant,session,date,expName,psychopyVersion,frameRate,mainTrials.thisRepN,mainTrials.thisTrialN,mainTrials.thisN,mainTrials.thisIndex,mainTrials.ran,mainTrials.order
,0,0.115625,-0.0375,1,0,0,targImage,1,0,8,2,1,7,1,0.125,b,iuyiy,001,2020-06-24_17h30.23.111,choiceRTT,3.1.3,60,,,,,,
,0,-0.15875,-0.03375,1,0,0,targImage,1,0,8,5,1,7,1,-0.125,v,iuyiy,001,2020-06-24_17h30.23.111,choiceRTT,3.1.3,60,,,,,,
,0,0.06375,-0.01625,1,0,0,targImage,1,0,8,6,1,7,1,0.125,b,iuyiy,001,2020-06-24_17h30.23.111,choiceRTT,3.1.3,60,,,,,,
,0,-0.333125,0.009375,1,0,0,targImage,1,0,8,0,1,7,1,-0.375,c,iuyiy,001,2020-06-24_17h30.23.111,choiceRTT,3.1.3,60,,,,,,
,0,-0.3825,-0.034375,1,0,0,targImage,1,0,8,4,1,7,1,-0.375,c,iuyiy,001,2020-06-24_17h30.23.111,choiceRTT,3.1.3,60,,,,,,
,0,0.418125,-0.005,1,0,0,targImage,1,0,8,3,1,7,1,0.375,n,iuyiy,001,2020-06-24_17h30.23.111,choiceRTT,3.1.3,60,,,,,,
,0,-0.125,0.015,1,0,0,targImage,1,0,8,1,1,7,1,-0.125,v,iuyiy,001,2020-06-24_17h30.23.111,choiceRTT,3.1.3,60,,,,,,
,0,0.325625,-0.014375,1,0,0,targImage,1,0,8,7,1,7,1,0.375,n,iuyiy,001,2020-06-24_17h30.23.111,choiceRTT,3.1.3,60,,,,,,
,0,-0.38625,-0.00625,1,0,0,targImage,,,,,,,2.7776,-0.375,c,iuyiy,001,2020-06-24_17h30.23.111,choiceRTT,3.1.3,60,1,0,40,32,1,39
,0,-0.29875,-0.00375,1,0,0,targImage,,,,,,,2.3332,-0.375,c,iuyiy,001,2020-06-24_17h30.23.111,choiceRTT,3.1.3,60,1,0,40,24,1,39
,0,-0.080625,-0.03125,1,0,0,targImage,,,,,,,2.9998,-0.125,v,iuyiy,001,2020-06-24_17h30.23.111,choiceRTT,3.1.3,60,1,0,40,37,1,39
,0,-0.146875,-0.021875,1,0,0,targImage,,,,,,,1,-0.125,v,iuyiy,001,2020-06-24_17h30.23.111,choiceRTT,3.1.3,60,1,0,40,1,1,39
,0,0.078125,-0.055625,1,0,0,targImage,,,,,,,2.5554,0.125,b,iuyiy,001,2020-06-24_17h30.23.111,choiceRTT,3.1.3,60,1,0,40,30,1,39
,0,-0.4025,-0.02,1,0,0,targImage,,,,,,,2.111,-0.375,c,iuyiy,001,2020-06-24_17h30.23.111,choiceRTT,3.1.3,60,1,0,40,20,1,39
,0,-0.3475,-0.025,1,0,0,targImage,,,,,,,1.4444,-0.375,c,iuyiy,001,2020-06-24_17h30.23.111,choiceRTT,3.1.3,60,1,0,40,8,1,39
,0,0.298125,-0.075,1,0,0,targImage,,,,,,,1.2222,0.375,n,iuyiy,001,2020-06-24_17h30.23.111,choiceRTT,3.1.3,60,1,0,40,7,1,39
,0,0.32125,-0.049375,1,0,0,targImage,,,,,,,2.3332,0.375,n,iuyiy,001,2020-06-24_17h30.23.111,choiceRTT,3.1.3,60,1,0,40,27,1,39
,0,0.315625,-0.02375,1,0,0,targImage,,,,,,,1.8888,0.375,n,iuyiy,001,2020-06-24_17h30.23.111,choiceRTT,3.1.3,60,1,0,40,19,1,39
,0,-0.28375,0.00125,1,0,0,targImage,,,,,,,1.6666,-0.375,c,iuyiy,001,2020-06-24_17h30.23.111,choiceRTT,3.1.3,60,1,0,40,12,1,39
,0,0.298125,-0.015,1,0,0,targImage,,,,,,,2.9998,0.375,n,iuyiy,001,2020-06-24_17h30.23.111,choiceRTT,3.1.3,60,1,0,40,39,1,39
,0,-0.315625,-0.010625,1,0,0,targImage,,,,,,,2.5554,-0.375,c,iuyiy,001,2020-06-24_17h30.23.111,choiceRTT,3.1.3,60,1,0,40,28,1,39
,0,-0.175625,-0.04125,1,0,0,targImage,,,,,,,2.7776,-0.125,v,iuyiy,001,2020-06-24_17h30.23.111,choiceRTT,3.1.3,60,1,0,40,33,1,39
,0,-0.114375,-0.051875,1,0,0,targImage,,,,,,,1.2222,-0.125,v,iuyiy,001,2020-06-24_17h30.23.111,choiceRTT,3.1.3,60,1,0,40,5,1,39
,0,0.055,-0.045,1,0,0,targImage,,,,,,,1.2222,0.125,b,iuyiy,001,2020-06-24_17h30.23.111,choiceRTT,3.1.3,60,1,0,40,6,1,39
,0,-0.13,-0.03125,1,0,0,targImage,,,,,,,2.3332,-0.125,v,iuyiy,001,2020-06-24_17h30.23.111,choiceRTT,3.1.3,60,1,0,40,25,1,39
,0,0.18,-0.049375,1,0,0,targImage,,,,,,,2.3332,0.125,b,iuyiy,001,2020-06-24_17h30.23.111,choiceRTT,3.1.3,60,1,0,40,26,1,39
,0,-0.075625,-0.02375,1,0,0,targImage,,,,,,,2.111,-0.125,v,iuyiy,001,2020-06-24_17h30.23.111,choiceRTT,3.1.3,60,1,0,40,21,1,39
,0,0.091875,-0.035625,1,0,0,targImage,,,,,,,2.9998,0.125,b,iuyiy,001,2020-06-24_17h30.23.111,choiceRTT,3.1.3,60,1,0,40,38,1,39
,0,-0.086875,-0.050625,1,0,0,targImage,,,,,,,1.6666,-0.125,v,iuyiy,001,2020-06-24_17h30.23.111,choiceRTT,3.1.3,60,1,0,40,13,1,39
,0,0.114375,-0.02125,1,0,0,targImage,,,,,,,2.111,0.125,b,iuyiy,001,2020-06-24_17h30.23.111,choiceRTT,3.1.3,60,1,0,40,22,1,39
,0,0.095625,-0.036875,1,0,0,targImage,,,,,,,1.4444,0.125,b,iuyiy,001,2020-06-24_17h30.23.111,choiceRTT,3.1.3,60,1,0,40,10,1,39
,0,-0.1075,-0.025,1,0,0,targImage,,,,,,,2.5554,-0.125,v,iuyiy,001,2020-06-24_17h30.23.111,choiceRTT,3.1.3,60,1,0,40,29,1,39
,0,-0.4375,0.006875,1,0,0,targImage,,,,,,,1.8888,-0.375,c,iuyiy,001,2020-06-24_17h30.23.111,choiceRTT,3.1.3,60,1,0,40,16,1,39
,0,0.32625,-0.0325,1,0,0,targImage,,,,,,,1,0.375,n,iuyiy,001,2020-06-24_17h30.23.111,choiceRTT,3.1.3,60,1,0,40,3,1,39
,0,0.279375,-0.04875,1,0,0,targImage,,,,,,,2.5554,0.375,n,iuyiy,001,2020-06-24_17h30.23.111,choiceRTT,3.1.3,60,1,0,40,31,1,39
,0,-0.300625,0.005625,1,0,0,targImage,,,,,,,1.2222,-0.375,c,iuyiy,001,2020-06-24_17h30.23.111,choiceRTT,3.1.3,60,1,0,40,4,1,39
,0,-0.3225,-0.005625,1,0,0,targImage,,,,,,,2.9998,-0.375,c,iuyiy,001,2020-06-24_17h30.23.111,choiceRTT,3.1.3,60,1,0,40,36,1,39
,0,0.12375,0,1,0,0,targImage,,,,,,,2.7776,0.125,b,iuyiy,001,2020-06-24_17h30.23.111,choiceRTT,3.1.3,60,1,0,40,34,1,39
,0,-0.085625,0.000625,1,0,0,targImage,,,,,,,1.8888,-0.125,v,iuyiy,001,2020-06-24_17h30.23.111,choiceRTT,3.1.3,60,1,0,40,17,1,39
,0,0.385,0.009375,1,0,0,targImage,,,,,,,1.6666,0.375,n,iuyiy,001,2020-06-24_17h30.23.111,choiceRTT,3.1.3,60,1,0,40,15,1,39
,0,0.075625,0,1,0,0,targImage,,,,,,,1.6666,0.125,b,iuyiy,001,2020-06-24_17h30.23.111,choiceRTT,3.1.3,60,1,0,40,14,1,39
,0,0.149375,-0.0175,1,0,0,targImage,,,,,,,1.8888,0.125,b,iuyiy,001,2020-06-24_17h30.23.111,choiceRTT,3.1.3,60,1,0,40,18,1,39
,0,0.415625,-0.03875,1,0,0,targImage,,,,,,,2.7776,0.375,n,iuyiy,001,2020-06-24_17h30.23.111,choiceRTT,3.1.3,60,1,0,40,35,1,39
,0,-0.338125,0.0375,1,0,0,targImage,,,,,,,1,-0.375,c,iuyiy,001,2020-06-24_17h30.23.111,choiceRTT,3.1.3,60,1,0,40,0,1,39
,0,0.11375,-0.041875,1,0,0,targImage,,,,,,,1,0.125,b,iuyiy,001,2020-06-24_17h30.23.111,choiceRTT,3.1.3,60,1,0,40,2,1,39
,0,0.361875,-0.064375,1,0,0,targImage,,,,,,,2.111,0.375,n,iuyiy,001,2020-06-24_17h30.23.111,choiceRTT,3.1.3,60,1,0,40,23,1,39
