response.keys,response.corr,mouseResp.x,mouseResp.y,mouseResp.leftButton,mouseResp.midButton,mouseResp.rightButton,mouseResp.clicked_name,practiceTrials.thisRepN,practiceTrials.thisTrialN,practiceTrials.thisN,practiceTrials.thisIndex,practiceTrials.ran,practiceTrials.order,isi,xPos,corrAns,participant,session,date,expName,psychopyVersion,frameRate,mainTrials.thisRepN,mainTrials.thisTrialN,mainTrials.thisN,mainTrials.thisIndex,mainTrials.ran,mainTrials.order
,0,-0.351851836,-0.015740756,1,0,0,targImage,1,0,8,0,1,7,1,-0.375,c,jb,001,2021-10-02_01h37.10.160,choiceRTT,3.1.3,60,,,,,,
,0,-0.125925847,-0.037962979,1,0,0,targImage,1,0,8,5,1,7,1,-0.125,v,jb,001,2021-10-02_01h37.10.160,choiceRTT,3.1.3,60,,,,,,
,0,0.12500003,-0.034259275,1,0,0,targImage,1,0,8,2,1,7,1,0.125,b,jb,001,2021-10-02_01h37.10.160,choiceRTT,3.1.3,60,,,,,,
,0,-0.055555531,0.011111097,1,0,0,targImage,1,0,8,1,1,7,1,-0.125,v,jb,001,2021-10-02_01h37.10.160,choiceRTT,3.1.3,60,,,,,,
,0,0.436111151,0.007407393,1,0,0,targImage,1,0,8,3,1,7,1,0.375,n,jb,001,2021-10-02_01h37.10.160,choiceRTT,3.1.3,60,,,,,,
,0,0.180555587,-0.042592609,1,0,0,targImage,1,0,8,6,1,7,1,0.125,b,jb,001,2021-10-02_01h37.10.160,choiceRTT,3.1.3,60,,,,,,
,0,0.425000039,-1.4912E-08,1,0,0,targImage,1,0,8,7,1,7,1,0.375,n,jb,001,2021-10-02_01h37.10.160,choiceRTT,3.1.3,60,,,,,,
,0,-0.318518502,0.082407367,1,0,0,targImage,1,0,8,4,1,7,1,-0.375,c,jb,001,2021-10-02_01h37.10.160,choiceRTT,3.1.3,60,,,,,,
,0,0.113888919,-0.036111127,1,0,0,targImage,,,,,,,1,0.125,b,jb,001,2021-10-02_01h37.10.160,choiceRTT,3.1.3,60,1,0,40,2,1,39
,0,-0.365740725,-0.022222238,1,0,0,targImage,,,,,,,2.111,-0.375,c,jb,001,2021-10-02_01h37.10.160,choiceRTT,3.1.3,60,1,0,40,20,1,39
,0,-0.149074052,-0.023148164,1,0,0,targImage,,,,,,,2.3332,-0.125,v,jb,001,2021-10-02_01h37.10.160,choiceRTT,3.1.3,60,1,0,40,25,1,39
,0,0.085185214,-0.009259274,1,0,0,targImage,,,,,,,2.3332,0.125,b,jb,001,2021-10-02_01h37.10.160,choiceRTT,3.1.3,60,1,0,40,26,1,39
,0,-0.080555531,-0.01481483,1,0,0,targImage,,,,,,,1,-0.125,v,jb,001,2021-10-02_01h37.10.160,choiceRTT,3.1.3,60,1,0,40,1,1,39
,0,0.362037074,-0.023148164,1,0,0,targImage,,,,,,,1.6666,0.375,n,jb,001,2021-10-02_01h37.10.160,choiceRTT,3.1.3,60,1,0,40,15,1,39
,0,-0.113888866,-0.012037052,1,0,0,targImage,,,,,,,1.4444,-0.125,v,jb,001,2021-10-02_01h37.10.160,choiceRTT,3.1.3,60,1,0,40,9,1,39
,0,0.407407446,-0.039814831,1,0,0,targImage,,,,,,,2.7776,0.375,n,jb,001,2021-10-02_01h37.10.160,choiceRTT,3.1.3,60,1,0,40,35,1,39
,0,0.089814844,-0.050000016,1,0,0,targImage,,,,,,,2.7776,0.125,b,jb,001,2021-10-02_01h37.10.160,choiceRTT,3.1.3,60,1,0,40,34,1,39
,0,0.097222252,-0.018518534,1,0,0,targImage,,,,,,,1.4444,0.125,b,jb,001,2021-10-02_01h37.10.160,choiceRTT,3.1.3,60,1,0,40,10,1,39
,0,-0.328703687,0.003703689,1,0,0,targImage,,,,,,,1.6666,-0.375,c,jb,001,2021-10-02_01h37.10.160,choiceRTT,3.1.3,60,1,0,40,12,1,39
,0,0.073148177,-0.033333349,1,0,0,targImage,,,,,,,1.2222,0.125,b,jb,001,2021-10-02_01h37.10.160,choiceRTT,3.1.3,60,1,0,40,6,1,39
,0,-0.047222197,0.008333319,1,0,0,targImage,,,,,,,1.8888,-0.125,v,jb,001,2021-10-02_01h37.10.160,choiceRTT,3.1.3,60,1,0,40,17,1,39
,0,-0.078703623,-0.003703719,1,0,0,targImage,,,,,,,2.5554,-0.125,v,jb,001,2021-10-02_01h37.10.160,choiceRTT,3.1.3,60,1,0,40,29,1,39
,0,0.366666704,-0.055555572,1,0,0,targImage,,,,,,,2.3332,0.375,n,jb,001,2021-10-02_01h37.10.160,choiceRTT,3.1.3,60,1,0,40,27,1,39
,0,-0.321296279,0.070370358,1,0,0,targImage,,,,,,,1.2222,-0.375,c,jb,001,2021-10-02_01h37.10.160,choiceRTT,3.1.3,60,1,0,40,4,1,39
,0,0.337037074,-0.015740756,1,0,0,targImage,,,,,,,1,0.375,n,jb,001,2021-10-02_01h37.10.160,choiceRTT,3.1.3,60,1,0,40,3,1,39
,0,-0.055555531,-0.086111129,1,0,0,targImage,,,,,,,1.2222,-0.125,v,jb,001,2021-10-02_01h37.10.160,choiceRTT,3.1.3,60,1,0,40,5,1,39
,0,-0.042592511,-0.071296313,1,0,0,targImage,,,,,,,1.6666,-0.125,v,jb,001,2021-10-02_01h37.10.160,choiceRTT,3.1.3,60,1,0,40,13,1,39
,0,-0.070370289,-0.055555572,1,0,0,targImage,,,,,,,2.7776,-0.125,v,jb,001,2021-10-02_01h37.10.160,choiceRTT,3.1.3,60,1,0,40,33,1,39
,0,0.304629665,-0.0101852,1,0,0,targImage,,,,,,,2.5554,0.375,n,jb,001,2021-10-02_01h37.10.160,choiceRTT,3.1.3,60,1,0,40,31,1,39
,0,-0.436111098,-0.037037053,1,0,0,targImage,,,,,,,1.8888,-0.375,c,jb,001,2021-10-02_01h37.10.160,choiceRTT,3.1.3,60,1,0,40,16,1,39
,0,-0.431481468,-0.022222238,1,0,0,targImage,,,,,,,2.9998,-0.375,c,jb,001,2021-10-02_01h37.10.160,choiceRTT,3.1.3,60,1,0,40,36,1,39
,0,0.37685189,-0.031481497,1,0,0,targImage,,,,,,,2.111,0.375,n,jb,001,2021-10-02_01h37.10.160,choiceRTT,3.1.3,60,1,0,40,23,1,39
,0,-0.451851811,-0.001851867,1,0,0,targImage,,,,,,,1.4444,-0.375,c,jb,001,2021-10-02_01h37.10.160,choiceRTT,3.1.3,60,1,0,40,8,1,39
,0,0.075925955,0.001851837,1,0,0,targImage,,,,,,,1.8888,0.125,b,jb,001,2021-10-02_01h37.10.160,choiceRTT,3.1.3,60,1,0,40,18,1,39
,0,-0.360185169,-0.039814831,1,0,0,targImage,,,,,,,2.5554,-0.375,c,jb,001,2021-10-02_01h37.10.160,choiceRTT,3.1.3,60,1,0,40,28,1,39
,0,0.089814844,-0.023148164,1,0,0,targImage,,,,,,,2.111,0.125,b,jb,001,2021-10-02_01h37.10.160,choiceRTT,3.1.3,60,1,0,40,22,1,39
,0,-0.065740716,-0.033333349,1,0,0,targImage,,,,,,,2.111,-0.125,v,jb,001,2021-10-02_01h37.10.160,choiceRTT,3.1.3,60,1,0,40,21,1,39
,0,-0.292592575,-1.4912E-08,1,0,0,targImage,,,,,,,1,-0.375,c,jb,001,2021-10-02_01h37.10.160,choiceRTT,3.1.3,60,1,0,40,0,1,39
,0,-0.439814801,-0.001851867,1,0,0,targImage,,,,,,,2.7776,-0.375,c,jb,001,2021-10-02_01h37.10.160,choiceRTT,3.1.3,60,1,0,40,32,1,39
,0,0.083333362,0.016666652,1,0,0,targImage,,,,,,,2.5554,0.125,b,jb,001,2021-10-02_01h37.10.160,choiceRTT,3.1.3,60,1,0,40,30,1,39
,0,-0.339814798,-0.034259275,1,0,0,targImage,,,,,,,2.3332,-0.375,c,jb,001,2021-10-02_01h37.10.160,choiceRTT,3.1.3,60,1,0,40,24,1,39
,0,-0.136111089,-0.061111128,1,0,0,targImage,,,,,,,2.9998,-0.125,v,jb,001,2021-10-02_01h37.10.160,choiceRTT,3.1.3,60,1,0,40,37,1,39
,0,0.317592629,-0.051851868,1,0,0,targImage,,,,,,,2.9998,0.375,n,jb,001,2021-10-02_01h37.10.160,choiceRTT,3.1.3,60,1,0,40,39,1,39
,0,0.371296334,-0.012962978,1,0,0,targImage,,,,,,,1.8888,0.375,n,jb,001,2021-10-02_01h37.10.160,choiceRTT,3.1.3,60,1,0,40,19,1,39
,0,0.356481519,-0.009259274,1,0,0,targImage,,,,,,,1.2222,0.375,n,jb,001,2021-10-02_01h37.10.160,choiceRTT,3.1.3,60,1,0,40,7,1,39
,0,0.350000037,-0.01481483,1,0,0,targImage,,,,,,,1.4444,0.375,n,jb,001,2021-10-02_01h37.10.160,choiceRTT,3.1.3,60,1,0,40,11,1,39
,0,0.106481511,-0.037037053,1,0,0,targImage,,,,,,,2.9998,0.125,b,jb,001,2021-10-02_01h37.10.160,choiceRTT,3.1.3,60,1,0,40,38,1,39
,0,0.098148178,0.023148134,1,0,0,targImage,,,,,,,1.6666,0.125,b,jb,001,2021-10-02_01h37.10.160,choiceRTT,3.1.3,60,1,0,40,14,1,39
