response.keys,response.corr,mouseResp.x,mouseResp.y,mouseResp.leftButton,mouseResp.midButton,mouseResp.rightButton,mouseResp.clicked_name,practiceTrials.thisRepN,practiceTrials.thisTrialN,practiceTrials.thisN,practiceTrials.thisIndex,practiceTrials.ran,practiceTrials.order,isi,xPos,corrAns,participant,session,date,expName,psychopyVersion,frameRate,mainTrials.thisRepN,mainTrials.thisTrialN,mainTrials.thisN,mainTrials.thisIndex,mainTrials.ran,mainTrials.order
,0,0.124074074,-0.012962963,1,0,0,targImage,1,0,8,6,1,7,1,0.125,b,kiki,001,2021-01-22_16h37.12.737,choiceRTT,3.1.3,60,,,,,,
,0,-0.309259259,-0.048148148,1,0,0,targImage,1,0,8,4,1,7,1,-0.375,c,kiki,001,2021-01-22_16h37.12.737,choiceRTT,3.1.3,60,,,,,,
,0,0.064814815,-0.025,1,0,0,targImage,1,0,8,2,1,7,1,0.125,b,kiki,001,2021-01-22_16h37.12.737,choiceRTT,3.1.3,60,,,,,,
,0,-0.066666667,-0.037962963,1,0,0,targImage,1,0,8,5,1,7,1,-0.125,v,kiki,001,2021-01-22_16h37.12.737,choiceRTT,3.1.3,60,,,,,,
,0,0.32037037,-0.017592593,1,0,0,targImage,1,0,8,7,1,7,1,0.375,n,kiki,001,2021-01-22_16h37.12.737,choiceRTT,3.1.3,60,,,,,,
,0,-0.080555556,-0.019444444,1,0,0,targImage,1,0,8,1,1,7,1,-0.125,v,kiki,001,2021-01-22_16h37.12.737,choiceRTT,3.1.3,60,,,,,,
,0,-0.396296296,0.021296296,1,0,0,targImage,1,0,8,0,1,7,1,-0.375,c,kiki,001,2021-01-22_16h37.12.737,choiceRTT,3.1.3,60,,,,,,
,0,0.359259259,-0.023148148,1,0,0,targImage,1,0,8,3,1,7,1,0.375,n,kiki,001,2021-01-22_16h37.12.737,choiceRTT,3.1.3,60,,,,,,
,0,0.100925926,-0.024074074,1,0,0,targImage,,,,,,,1,0.125,b,kiki,001,2021-01-22_16h37.12.737,choiceRTT,3.1.3,60,1,0,40,2,1,39
,0,-0.080555556,0.002777778,1,0,0,targImage,,,,,,,2.7776,-0.125,v,kiki,001,2021-01-22_16h37.12.737,choiceRTT,3.1.3,60,1,0,40,33,1,39
,0,-0.313888889,0.010185185,1,0,0,targImage,,,,,,,2.5554,-0.375,c,kiki,001,2021-01-22_16h37.12.737,choiceRTT,3.1.3,60,1,0,40,28,1,39
,0,-0.311111111,0.012962963,1,0,0,targImage,,,,,,,1.8888,-0.375,c,kiki,001,2021-01-22_16h37.12.737,choiceRTT,3.1.3,60,1,0,40,16,1,39
,0,-0.311111111,0.012962963,1,0,0,targImage,,,,,,,2.3332,-0.375,c,kiki,001,2021-01-22_16h37.12.737,choiceRTT,3.1.3,60,1,0,40,24,1,39
,0,0.085185185,-0.025925926,1,0,0,targImage,,,,,,,1.4444,0.125,b,kiki,001,2021-01-22_16h37.12.737,choiceRTT,3.1.3,60,1,0,40,10,1,39
,0,0.085185185,-0.025925926,1,0,0,targImage,,,,,,,2.111,0.125,b,kiki,001,2021-01-22_16h37.12.737,choiceRTT,3.1.3,60,1,0,40,22,1,39
,0,-0.115740741,0.00462963,1,0,0,targImage,,,,,,,1.6666,-0.125,v,kiki,001,2021-01-22_16h37.12.737,choiceRTT,3.1.3,60,1,0,40,13,1,39
,0,0.062962963,0.00462963,1,0,0,targImage,,,,,,,2.5554,0.125,b,kiki,001,2021-01-22_16h37.12.737,choiceRTT,3.1.3,60,1,0,40,30,1,39
,0,0.059259259,0.002777778,1,0,0,targImage,,,,,,,2.9998,0.125,b,kiki,001,2021-01-22_16h37.12.737,choiceRTT,3.1.3,60,1,0,40,38,1,39
,0,0.356481481,-0.028703704,1,0,0,targImage,,,,,,,2.111,0.375,n,kiki,001,2021-01-22_16h37.12.737,choiceRTT,3.1.3,60,1,0,40,23,1,39
,0,0.353703704,-0.028703704,1,0,0,targImage,,,,,,,2.5554,0.375,n,kiki,001,2021-01-22_16h37.12.737,choiceRTT,3.1.3,60,1,0,40,31,1,39
,0,0.352777778,-0.028703704,1,0,0,targImage,,,,,,,2.9998,0.375,n,kiki,001,2021-01-22_16h37.12.737,choiceRTT,3.1.3,60,1,0,40,39,1,39
,0,0.352777778,-0.028703704,1,0,0,targImage,,,,,,,1.4444,0.375,n,kiki,001,2021-01-22_16h37.12.737,choiceRTT,3.1.3,60,1,0,40,11,1,39
,0,-0.165740741,0.022222222,1,0,0,targImage,,,,,,,1,-0.125,v,kiki,001,2021-01-22_16h37.12.737,choiceRTT,3.1.3,60,1,0,40,1,1,39
,0,0.315740741,-0.007407407,1,0,0,targImage,,,,,,,1.6666,0.375,n,kiki,001,2021-01-22_16h37.12.737,choiceRTT,3.1.3,60,1,0,40,15,1,39
,0,-0.073148148,0.012962963,1,0,0,targImage,,,,,,,2.9998,-0.125,v,kiki,001,2021-01-22_16h37.12.737,choiceRTT,3.1.3,60,1,0,40,37,1,39
,0,0.183333333,0.000925926,1,0,0,targImage,,,,,,,2.3332,0.125,b,kiki,001,2021-01-22_16h37.12.737,choiceRTT,3.1.3,60,1,0,40,26,1,39
,0,0.14537037,0.000925926,1,0,0,targImage,,,,,,,1.2222,0.125,b,kiki,001,2021-01-22_16h37.12.737,choiceRTT,3.1.3,60,1,0,40,6,1,39
,0,-0.098148148,0.017592593,1,0,0,targImage,,,,,,,2.111,-0.125,v,kiki,001,2021-01-22_16h37.12.737,choiceRTT,3.1.3,60,1,0,40,21,1,39
,0,0.312037037,0.038888889,1,0,0,targImage,,,,,,,2.3332,0.375,n,kiki,001,2021-01-22_16h37.12.737,choiceRTT,3.1.3,60,1,0,40,27,1,39
,0,-0.069444444,-0.007407407,1,0,0,targImage,,,,,,,1.4444,-0.125,v,kiki,001,2021-01-22_16h37.12.737,choiceRTT,3.1.3,60,1,0,40,9,1,39
,0,0.127777778,0.012037037,1,0,0,targImage,,,,,,,2.7776,0.125,b,kiki,001,2021-01-22_16h37.12.737,choiceRTT,3.1.3,60,1,0,40,34,1,39
,0,0.341666667,-0.025925926,1,0,0,targImage,,,,,,,1.8888,0.375,n,kiki,001,2021-01-22_16h37.12.737,choiceRTT,3.1.3,60,1,0,40,19,1,39
,0,-0.385185185,0.005555556,1,0,0,targImage,,,,,,,1.6666,-0.375,c,kiki,001,2021-01-22_16h37.12.737,choiceRTT,3.1.3,60,1,0,40,12,1,39
,0,-0.382407407,0.011111111,1,0,0,targImage,,,,,,,1,-0.375,c,kiki,001,2021-01-22_16h37.12.737,choiceRTT,3.1.3,60,1,0,40,0,1,39
,0,0.077777778,-0.023148148,1,0,0,targImage,,,,,,,1.6666,0.125,b,kiki,001,2021-01-22_16h37.12.737,choiceRTT,3.1.3,60,1,0,40,14,1,39
,0,-0.060185185,-0.001851852,1,0,0,targImage,,,,,,,2.3332,-0.125,v,kiki,001,2021-01-22_16h37.12.737,choiceRTT,3.1.3,60,1,0,40,25,1,39
,0,-0.060185185,-0.001851852,1,0,0,targImage,,,,,,,2.5554,-0.125,v,kiki,001,2021-01-22_16h37.12.737,choiceRTT,3.1.3,60,1,0,40,29,1,39
,0,0.316666667,-0.023148148,1,0,0,targImage,,,,,,,1.2222,0.375,n,kiki,001,2021-01-22_16h37.12.737,choiceRTT,3.1.3,60,1,0,40,7,1,39
,0,-0.333333333,0.007407407,1,0,0,targImage,,,,,,,1.4444,-0.375,c,kiki,001,2021-01-22_16h37.12.737,choiceRTT,3.1.3,60,1,0,40,8,1,39
,0,0.078703704,0.010185185,1,0,0,targImage,,,,,,,1.8888,0.125,b,kiki,001,2021-01-22_16h37.12.737,choiceRTT,3.1.3,60,1,0,40,18,1,39
