response.keys,response.corr,mouseResp.x,mouseResp.y,mouseResp.leftButton,mouseResp.midButton,mouseResp.rightButton,mouseResp.clicked_name,practiceTrials.thisRepN,practiceTrials.thisTrialN,practiceTrials.thisN,practiceTrials.thisIndex,practiceTrials.ran,practiceTrials.order,isi,xPos,corrAns,participant,session,date,expName,psychopyVersion,frameRate,mainTrials.thisRepN,mainTrials.thisTrialN,mainTrials.thisN,mainTrials.thisIndex,mainTrials.ran,mainTrials.order
,0,0.354629667,-0.055555572,1,0,0,targImage,1,0,8,7,1,7,1,0.375,n,Korean1,001,2021-07-02_17h09.06.657,choiceRTT,3.1.3,60,,,,,,
,0,-0.118518496,0.016666652,1,0,0,targImage,1,0,8,5,1,7,1,-0.125,v,Korean1,001,2021-07-02_17h09.06.657,choiceRTT,3.1.3,60,,,,,,
,0,-0.332407391,-0.012962978,1,0,0,targImage,1,0,8,0,1,7,1,-0.375,c,Korean1,001,2021-07-02_17h09.06.657,choiceRTT,3.1.3,60,,,,,,
,0,-0.331481465,-0.008333348,1,0,0,targImage,1,0,8,4,1,7,1,-0.375,c,Korean1,001,2021-07-02_17h09.06.657,choiceRTT,3.1.3,60,,,,,,
,0,0.082407436,-0.012037052,1,0,0,targImage,1,0,8,6,1,7,1,0.125,b,Korean1,001,2021-07-02_17h09.06.657,choiceRTT,3.1.3,60,,,,,,
,0,0.350000037,-0.013888904,1,0,0,targImage,1,0,8,3,1,7,1,0.375,n,Korean1,001,2021-07-02_17h09.06.657,choiceRTT,3.1.3,60,,,,,,
,0,-0.057407383,0.005555541,1,0,0,targImage,1,0,8,1,1,7,1,-0.125,v,Korean1,001,2021-07-02_17h09.06.657,choiceRTT,3.1.3,60,,,,,,
,0,0.107407437,0.005555541,1,0,0,targImage,1,0,8,2,1,7,1,0.125,b,Korean1,001,2021-07-02_17h09.06.657,choiceRTT,3.1.3,60,,,,,,
,0,-0.30740739,-0.034259275,1,0,0,targImage,,,,,,,1.8888,-0.375,c,Korean1,001,2021-07-02_17h09.06.657,choiceRTT,3.1.3,60,1,0,40,16,1,39
,0,0.141666697,-0.069444461,1,0,0,targImage,,,,,,,2.7776,0.125,b,Korean1,001,2021-07-02_17h09.06.657,choiceRTT,3.1.3,60,1,0,40,34,1,39
,0,0.141666697,-0.069444461,1,0,0,targImage,,,,,,,1,0.125,b,Korean1,001,2021-07-02_17h09.06.657,choiceRTT,3.1.3,60,1,0,40,2,1,39
,0,-0.10833331,-0.020370386,1,0,0,targImage,,,,,,,1.4444,-0.125,v,Korean1,001,2021-07-02_17h09.06.657,choiceRTT,3.1.3,60,1,0,40,9,1,39
,0,0.079629658,-0.02407409,1,0,0,targImage,,,,,,,1.4444,0.125,b,Korean1,001,2021-07-02_17h09.06.657,choiceRTT,3.1.3,60,1,0,40,10,1,39
,0,0.339814851,-0.026851868,1,0,0,targImage,,,,,,,1.4444,0.375,n,Korean1,001,2021-07-02_17h09.06.657,choiceRTT,3.1.3,60,1,0,40,11,1,39
,0,-0.313888872,-0.033333349,1,0,0,targImage,,,,,,,2.7776,-0.375,c,Korean1,001,2021-07-02_17h09.06.657,choiceRTT,3.1.3,60,1,0,40,32,1,39
,0,-0.313888872,-0.033333349,1,0,0,targImage,,,,,,,1,-0.375,c,Korean1,001,2021-07-02_17h09.06.657,choiceRTT,3.1.3,60,1,0,40,0,1,39
,0,0.369444482,-0.008333348,1,0,0,targImage,,,,,,,1.2222,0.375,n,Korean1,001,2021-07-02_17h09.06.657,choiceRTT,3.1.3,60,1,0,40,7,1,39
,0,-0.384259244,0.048148135,1,0,0,targImage,,,,,,,1.4444,-0.375,c,Korean1,001,2021-07-02_17h09.06.657,choiceRTT,3.1.3,60,1,0,40,8,1,39
,0,0.33333337,-0.064814832,1,0,0,targImage,,,,,,,2.3332,0.375,n,Korean1,001,2021-07-02_17h09.06.657,choiceRTT,3.1.3,60,1,0,40,27,1,39
,0,0.162037068,-0.050000016,1,0,0,targImage,,,,,,,1.8888,0.125,b,Korean1,001,2021-07-02_17h09.06.657,choiceRTT,3.1.3,60,1,0,40,18,1,39
,0,-0.130555533,-0.064814832,1,0,0,targImage,,,,,,,2.7776,-0.125,v,Korean1,001,2021-07-02_17h09.06.657,choiceRTT,3.1.3,60,1,0,40,33,1,39
,0,0.305555591,-0.046296313,1,0,0,targImage,,,,,,,1,0.375,n,Korean1,001,2021-07-02_17h09.06.657,choiceRTT,3.1.3,60,1,0,40,3,1,39
,0,-0.141666644,-0.042592609,1,0,0,targImage,,,,,,,1.8888,-0.125,v,Korean1,001,2021-07-02_17h09.06.657,choiceRTT,3.1.3,60,1,0,40,17,1,39
,0,0.420370409,-0.039814831,1,0,0,targImage,,,,,,,1.6666,0.375,n,Korean1,001,2021-07-02_17h09.06.657,choiceRTT,3.1.3,60,1,0,40,15,1,39
,0,0.362037074,-0.027777794,1,0,0,targImage,,,,,,,1.8888,0.375,n,Korean1,001,2021-07-02_17h09.06.657,choiceRTT,3.1.3,60,1,0,40,19,1,39
,0,-0.171296275,-0.017592608,1,0,0,targImage,,,,,,,2.3332,-0.125,v,Korean1,001,2021-07-02_17h09.06.657,choiceRTT,3.1.3,60,1,0,40,25,1,39
,0,-0.334259243,-0.017592608,1,0,0,targImage,,,,,,,2.5554,-0.375,c,Korean1,001,2021-07-02_17h09.06.657,choiceRTT,3.1.3,60,1,0,40,28,1,39
,0,0.063888917,-0.017592608,1,0,0,targImage,,,,,,,2.5554,0.125,b,Korean1,001,2021-07-02_17h09.06.657,choiceRTT,3.1.3,60,1,0,40,30,1,39
,0,-0.367592577,0.009259245,1,0,0,targImage,,,,,,,2.111,-0.375,c,Korean1,001,2021-07-02_17h09.06.657,choiceRTT,3.1.3,60,1,0,40,20,1,39
,0,-0.066666642,-0.021296312,1,0,0,targImage,,,,,,,1,-0.125,v,Korean1,001,2021-07-02_17h09.06.657,choiceRTT,3.1.3,60,1,0,40,1,1,39
,0,0.378703741,-0.029629645,1,0,0,targImage,,,,,,,2.9998,0.375,n,Korean1,001,2021-07-02_17h09.06.657,choiceRTT,3.1.3,60,1,0,40,39,1,39
,0,0.140740771,-0.011111126,1,0,0,targImage,,,,,,,1.2222,0.125,b,Korean1,001,2021-07-02_17h09.06.657,choiceRTT,3.1.3,60,1,0,40,6,1,39
,0,-0.077777754,0.004629615,1,0,0,targImage,,,,,,,1.6666,-0.125,v,Korean1,001,2021-07-02_17h09.06.657,choiceRTT,3.1.3,60,1,0,40,13,1,39
,0,-0.30277776,0.008333319,1,0,0,targImage,,,,,,,1.6666,-0.375,c,Korean1,001,2021-07-02_17h09.06.657,choiceRTT,3.1.3,60,1,0,40,12,1,39
,0,0.153703735,-0.015740756,1,0,0,targImage,,,,,,,2.9998,0.125,b,Korean1,001,2021-07-02_17h09.06.657,choiceRTT,3.1.3,60,1,0,40,38,1,39
,0,0.150000031,-0.015740756,1,0,0,targImage,,,,,,,1.6666,0.125,b,Korean1,001,2021-07-02_17h09.06.657,choiceRTT,3.1.3,60,1,0,40,14,1,39
,0,0.41574078,-0.015740756,1,0,0,targImage,,,,,,,2.7776,0.375,n,Korean1,001,2021-07-02_17h09.06.657,choiceRTT,3.1.3,60,1,0,40,35,1,39
,0,-0.167592515,-0.013888904,1,0,0,targImage,,,,,,,2.5554,-0.125,v,Korean1,001,2021-07-02_17h09.06.657,choiceRTT,3.1.3,60,1,0,40,29,1,39
,0,-0.337962947,-0.029629645,1,0,0,targImage,,,,,,,2.9998,-0.375,c,Korean1,001,2021-07-02_17h09.06.657,choiceRTT,3.1.3,60,1,0,40,36,1,39
,0,0.150000031,-0.021296312,1,0,0,targImage,,,,,,,2.3332,0.125,b,Korean1,001,2021-07-02_17h09.06.657,choiceRTT,3.1.3,60,1,0,40,26,1,39
,0,0.13425929,-0.021296312,1,0,0,targImage,,,,,,,2.111,0.125,b,Korean1,001,2021-07-02_17h09.06.657,choiceRTT,3.1.3,60,1,0,40,22,1,39
,0,-0.348148132,0.018518504,1,0,0,targImage,,,,,,,2.3332,-0.375,c,Korean1,001,2021-07-02_17h09.06.657,choiceRTT,3.1.3,60,1,0,40,24,1,39
,0,-0.106481402,0.001851837,1,0,0,targImage,,,,,,,2.111,-0.125,v,Korean1,001,2021-07-02_17h09.06.657,choiceRTT,3.1.3,60,1,0,40,21,1,39
,0,-0.098148068,-1.4912E-08,1,0,0,targImage,,,,,,,2.9998,-0.125,v,Korean1,001,2021-07-02_17h09.06.657,choiceRTT,3.1.3,60,1,0,40,37,1,39
,0,-0.310185168,-0.000925941,1,0,0,targImage,,,,,,,1.2222,-0.375,c,Korean1,001,2021-07-02_17h09.06.657,choiceRTT,3.1.3,60,1,0,40,4,1,39
,0,0.387963001,0.006481467,1,0,0,targImage,,,,,,,2.5554,0.375,n,Korean1,001,2021-07-02_17h09.06.657,choiceRTT,3.1.3,60,1,0,40,31,1,39
,0,0.41111115,-0.005555571,1,0,0,targImage,,,,,,,2.111,0.375,n,Korean1,001,2021-07-02_17h09.06.657,choiceRTT,3.1.3,60,1,0,40,23,1,39
,0,-0.137036958,-0.000925941,1,0,0,targImage,,,,,,,1.2222,-0.125,v,Korean1,001,2021-07-02_17h09.06.657,choiceRTT,3.1.3,60,1,0,40,5,1,39
