response.keys,response.corr,mouseResp.x,mouseResp.y,mouseResp.leftButton,mouseResp.midButton,mouseResp.rightButton,mouseResp.clicked_name,practiceTrials.thisRepN,practiceTrials.thisTrialN,practiceTrials.thisN,practiceTrials.thisIndex,practiceTrials.ran,practiceTrials.order,isi,xPos,corrAns,participant,session,date,expName,psychopyVersion,frameRate,mainTrials.thisRepN,mainTrials.thisTrialN,mainTrials.thisN,mainTrials.thisIndex,mainTrials.ran,mainTrials.order
,0,-0.095370302,-0.049074082,1,0,0,targImage,1,0,8,1,1,7,1,-0.125,v,l,001,2021-02-24_20h40.18.272,choiceRTT,3.1.3,60,,,,,,
,0,-0.380555548,0.00277777,1,0,0,targImage,1,0,8,0,1,7,1,-0.375,c,l,001,2021-02-24_20h40.18.272,choiceRTT,3.1.3,60,,,,,,
,0,0.158333349,-0.049074082,1,0,0,targImage,1,0,8,6,1,7,1,0.125,b,l,001,2021-02-24_20h40.18.272,choiceRTT,3.1.3,60,,,,,,
,0,-0.449999993,0.001851844,1,0,0,targImage,1,0,8,4,1,7,1,-0.375,c,l,001,2021-02-24_20h40.18.272,choiceRTT,3.1.3,60,,,,,,
,0,-0.089814803,-0.053703712,1,0,0,targImage,1,0,8,5,1,7,1,-0.125,v,l,001,2021-02-24_20h40.18.272,choiceRTT,3.1.3,60,,,,,,
,0,0.08055557,-0.084259268,1,0,0,targImage,1,0,8,2,1,7,1,0.125,b,l,001,2021-02-24_20h40.18.272,choiceRTT,3.1.3,60,,,,,,
,0,0.30925939,-0.030555563,1,0,0,targImage,1,0,8,7,1,7,1,0.375,n,l,001,2021-02-24_20h40.18.272,choiceRTT,3.1.3,60,,,,,,
,0,0.400000019,0.008333326,1,0,0,targImage,1,0,8,3,1,7,1,0.375,n,l,001,2021-02-24_20h40.18.272,choiceRTT,3.1.3,60,,,,,,
,0,-0.157407397,0.033333326,1,0,0,targImage,,,,,,,1.6666,-0.125,v,l,001,2021-02-24_20h40.18.272,choiceRTT,3.1.3,60,1,0,40,13,1,39
,0,0.389814834,0.033333326,1,0,0,targImage,,,,,,,2.7776,0.375,n,l,001,2021-02-24_20h40.18.272,choiceRTT,3.1.3,60,1,0,40,35,1,39
,0,0.398148167,0.025925919,1,0,0,targImage,,,,,,,1,0.375,n,l,001,2021-02-24_20h40.18.272,choiceRTT,3.1.3,60,1,0,40,3,1,39
,0,0.329629648,-0.000925933,1,0,0,targImage,,,,,,,1.2222,0.375,n,l,001,2021-02-24_20h40.18.272,choiceRTT,3.1.3,60,1,0,40,7,1,39
,0,-0.294444379,0.037962956,1,0,0,targImage,,,,,,,1.2222,-0.375,c,l,001,2021-02-24_20h40.18.272,choiceRTT,3.1.3,60,1,0,40,4,1,39
,0,-0.087037025,-0.041666675,1,0,0,targImage,,,,,,,1.2222,-0.125,v,l,001,2021-02-24_20h40.18.272,choiceRTT,3.1.3,60,1,0,40,5,1,39
,0,0.347222241,-0.012037045,1,0,0,targImage,,,,,,,2.5554,0.375,n,l,001,2021-02-24_20h40.18.272,choiceRTT,3.1.3,60,1,0,40,31,1,39
,0,0.3314815,0.018518511,1,0,0,targImage,,,,,,,1.8888,0.375,n,l,001,2021-02-24_20h40.18.272,choiceRTT,3.1.3,60,1,0,40,19,1,39
,0,-0.357407399,-0.015740748,1,0,0,targImage,,,,,,,2.9998,-0.375,c,l,001,2021-02-24_20h40.18.272,choiceRTT,3.1.3,60,1,0,40,36,1,39
,0,-0.147222211,-0.041666675,1,0,0,targImage,,,,,,,2.9998,-0.125,v,l,001,2021-02-24_20h40.18.272,choiceRTT,3.1.3,60,1,0,40,37,1,39
,0,-0.316666658,-0.037037045,1,0,0,targImage,,,,,,,1.8888,-0.375,c,l,001,2021-02-24_20h40.18.272,choiceRTT,3.1.3,60,1,0,40,16,1,39
,0,-0.423148141,-0.042592601,1,0,0,targImage,,,,,,,2.7776,-0.375,c,l,001,2021-02-24_20h40.18.272,choiceRTT,3.1.3,60,1,0,40,32,1,39
,0,-0.345370362,-0.036111119,1,0,0,targImage,,,,,,,2.111,-0.375,c,l,001,2021-02-24_20h40.18.272,choiceRTT,3.1.3,60,1,0,40,20,1,39
,0,0.138888904,0.024074067,1,0,0,targImage,,,,,,,2.3332,0.125,b,l,001,2021-02-24_20h40.18.272,choiceRTT,3.1.3,60,1,0,40,26,1,39
,0,-0.095370302,0.00277777,1,0,0,targImage,,,,,,,2.5554,-0.125,v,l,001,2021-02-24_20h40.18.272,choiceRTT,3.1.3,60,1,0,40,29,1,39
,0,0.057407478,-0.006481489,1,0,0,targImage,,,,,,,1.8888,0.125,b,l,001,2021-02-24_20h40.18.272,choiceRTT,3.1.3,60,1,0,40,18,1,39
,0,0.314814833,0.015740734,1,0,0,targImage,,,,,,,1.4444,0.375,n,l,001,2021-02-24_20h40.18.272,choiceRTT,3.1.3,60,1,0,40,11,1,39
,0,0.359259278,-0.005555563,1,0,0,targImage,,,,,,,2.111,0.375,n,l,001,2021-02-24_20h40.18.272,choiceRTT,3.1.3,60,1,0,40,23,1,39
,0,0.175000016,0.047222215,1,0,0,targImage,,,,,,,1.2222,0.125,b,l,001,2021-02-24_20h40.18.272,choiceRTT,3.1.3,60,1,0,40,6,1,39
,0,0.347222241,-0.032407415,1,0,0,targImage,,,,,,,2.9998,0.375,n,l,001,2021-02-24_20h40.18.272,choiceRTT,3.1.3,60,1,0,40,39,1,39
,0,0.095370385,-0.034259267,1,0,0,targImage,,,,,,,2.9998,0.125,b,l,001,2021-02-24_20h40.18.272,choiceRTT,3.1.3,60,1,0,40,38,1,39
,0,-0.149999989,-0.036111119,1,0,0,targImage,,,,,,,2.7776,-0.125,v,l,001,2021-02-24_20h40.18.272,choiceRTT,3.1.3,60,1,0,40,33,1,39
,0,-0.451851845,-0.052777786,1,0,0,targImage,,,,,,,2.3332,-0.375,c,l,001,2021-02-24_20h40.18.272,choiceRTT,3.1.3,60,1,0,40,24,1,39
,0,-0.210185175,-0.000925933,1,0,0,targImage,,,,,,,2.3332,-0.125,v,l,001,2021-02-24_20h40.18.272,choiceRTT,3.1.3,60,1,0,40,25,1,39
,0,-0.094444433,0.005555548,1,0,0,targImage,,,,,,,1,-0.125,v,l,001,2021-02-24_20h40.18.272,choiceRTT,3.1.3,60,1,0,40,1,1,39
,0,-0.212962953,-0.0175926,1,0,0,targImage,,,,,,,1.8888,-0.125,v,l,001,2021-02-24_20h40.18.272,choiceRTT,3.1.3,60,1,0,40,17,1,39
,0,0.078703718,-0.037962971,1,0,0,targImage,,,,,,,1,0.125,b,l,001,2021-02-24_20h40.18.272,choiceRTT,3.1.3,60,1,0,40,2,1,39
,0,-0.107407396,-0.004629637,1,0,0,targImage,,,,,,,2.111,-0.125,v,l,001,2021-02-24_20h40.18.272,choiceRTT,3.1.3,60,1,0,40,21,1,39
,0,0.426851871,0.022222215,1,0,0,targImage,,,,,,,1.6666,0.375,n,l,001,2021-02-24_20h40.18.272,choiceRTT,3.1.3,60,1,0,40,15,1,39
,0,0.160185201,-0.036111119,1,0,0,targImage,,,,,,,2.111,0.125,b,l,001,2021-02-24_20h40.18.272,choiceRTT,3.1.3,60,1,0,40,22,1,39
