response.keys,response.corr,mouseResp.x,mouseResp.y,mouseResp.leftButton,mouseResp.midButton,mouseResp.rightButton,mouseResp.clicked_name,practiceTrials.thisRepN,practiceTrials.thisTrialN,practiceTrials.thisN,practiceTrials.thisIndex,practiceTrials.ran,practiceTrials.order,isi,xPos,corrAns,participant,session,date,expName,psychopyVersion,frameRate,mainTrials.thisRepN,mainTrials.thisTrialN,mainTrials.thisN,mainTrials.thisIndex,mainTrials.ran,mainTrials.order
,0,-0.378703688,0.035185143,1,0,0,targImage,1,0,8,4,1,7,1,-0.375,c,Laura,001,2020-05-13_15h40.08.100,choiceRTT,3.1.3,60,,,,,,
,0,0.113888919,0.016666652,1,0,0,targImage,1,0,8,6,1,7,1,0.125,b,Laura,001,2020-05-13_15h40.08.100,choiceRTT,3.1.3,60,,,,,,
,0,0.113888919,0.016666652,1,0,0,targImage,1,0,8,2,1,7,1,0.125,b,Laura,001,2020-05-13_15h40.08.100,choiceRTT,3.1.3,60,,,,,,
,0,-0.114814735,0.009259245,1,0,0,targImage,1,0,8,5,1,7,1,-0.125,v,Laura,001,2020-05-13_15h40.08.100,choiceRTT,3.1.3,60,,,,,,
,0,-0.35092591,0.01944443,1,0,0,targImage,1,0,8,0,1,7,1,-0.375,c,Laura,001,2020-05-13_15h40.08.100,choiceRTT,3.1.3,60,,,,,,
,0,0.346296333,0.022222208,1,0,0,targImage,1,0,8,3,1,7,1,0.375,n,Laura,001,2020-05-13_15h40.08.100,choiceRTT,3.1.3,60,,,,,,
,0,-0.104629606,0.000925911,1,0,0,targImage,1,0,8,1,1,7,1,-0.125,v,Laura,001,2020-05-13_15h40.08.100,choiceRTT,3.1.3,60,,,,,,
,0,0.312037073,0.039814801,1,0,0,targImage,1,0,8,7,1,7,1,0.375,n,Laura,001,2020-05-13_15h40.08.100,choiceRTT,3.1.3,60,,,,,,
,0,-0.319444427,0.006481467,1,0,0,targImage,,,,,,,1,-0.375,c,Laura,001,2020-05-13_15h40.08.100,choiceRTT,3.1.3,60,1,0,40,0,1,39
,0,-0.118518496,-1.4912E-08,1,0,0,targImage,,,,,,,2.5554,-0.125,v,Laura,001,2020-05-13_15h40.08.100,choiceRTT,3.1.3,60,1,0,40,29,1,39
,0,-0.38518517,-0.004629645,1,0,0,targImage,,,,,,,2.5554,-0.375,c,Laura,001,2020-05-13_15h40.08.100,choiceRTT,3.1.3,60,1,0,40,28,1,39
,0,-0.443518477,-0.015740756,1,0,0,targImage,,,,,,,2.111,-0.375,c,Laura,001,2020-05-13_15h40.08.100,choiceRTT,3.1.3,60,1,0,40,20,1,39
,0,-0.146296274,-0.022222238,1,0,0,targImage,,,,,,,1,-0.125,v,Laura,001,2020-05-13_15h40.08.100,choiceRTT,3.1.3,60,1,0,40,1,1,39
,0,-0.122222199,-0.012962978,1,0,0,targImage,,,,,,,2.111,-0.125,v,Laura,001,2020-05-13_15h40.08.100,choiceRTT,3.1.3,60,1,0,40,21,1,39
,0,0.141666697,0.0148148,1,0,0,targImage,,,,,,,2.7776,0.125,b,Laura,001,2020-05-13_15h40.08.100,choiceRTT,3.1.3,60,1,0,40,34,1,39
,0,-0.077777754,0.010185171,1,0,0,targImage,,,,,,,1.8888,-0.125,v,Laura,001,2020-05-13_15h40.08.100,choiceRTT,3.1.3,60,1,0,40,17,1,39
,0,0.114814845,0.037962921,1,0,0,targImage,,,,,,,1.6666,0.125,b,Laura,001,2020-05-13_15h40.08.100,choiceRTT,3.1.3,60,1,0,40,14,1,39
,0,0.368518556,0.049999987,1,0,0,targImage,,,,,,,2.7776,0.375,n,Laura,001,2020-05-13_15h40.08.100,choiceRTT,3.1.3,60,1,0,40,35,1,39
,0,-0.07407405,0.049074032,1,0,0,targImage,,,,,,,2.3332,-0.125,v,Laura,001,2020-05-13_15h40.08.100,choiceRTT,3.1.3,60,1,0,40,25,1,39
,0,0.361111148,0.006481467,1,0,0,targImage,,,,,,,1,0.375,n,Laura,001,2020-05-13_15h40.08.100,choiceRTT,3.1.3,60,1,0,40,3,1,39
,0,0.122222252,0.003703689,1,0,0,targImage,,,,,,,1.4444,0.125,b,Laura,001,2020-05-13_15h40.08.100,choiceRTT,3.1.3,60,1,0,40,10,1,39
,0,0.122222252,0.003703689,1,0,0,targImage,,,,,,,2.9998,0.125,b,Laura,001,2020-05-13_15h40.08.100,choiceRTT,3.1.3,60,1,0,40,38,1,39
,0,-0.362037021,-0.01944446,1,0,0,targImage,,,,,,,1.4444,-0.375,c,Laura,001,2020-05-13_15h40.08.100,choiceRTT,3.1.3,60,1,0,40,8,1,39
,0,0.087962992,0.026851809,1,0,0,targImage,,,,,,,2.3332,0.125,b,Laura,001,2020-05-13_15h40.08.100,choiceRTT,3.1.3,60,1,0,40,26,1,39
,0,0.087962992,0.026851809,1,0,0,targImage,,,,,,,1,0.125,b,Laura,001,2020-05-13_15h40.08.100,choiceRTT,3.1.3,60,1,0,40,2,1,39
,0,-0.106481402,0.01944443,1,0,0,targImage,,,,,,,1.4444,-0.125,v,Laura,001,2020-05-13_15h40.08.100,choiceRTT,3.1.3,60,1,0,40,9,1,39
,0,0.365740778,0.020370356,1,0,0,targImage,,,,,,,2.9998,0.375,n,Laura,001,2020-05-13_15h40.08.100,choiceRTT,3.1.3,60,1,0,40,39,1,39
,0,0.139814845,0.008333319,1,0,0,targImage,,,,,,,1.2222,0.125,b,Laura,001,2020-05-13_15h40.08.100,choiceRTT,3.1.3,60,1,0,40,6,1,39
,0,0.362037074,0.009259245,1,0,0,targImage,,,,,,,1.2222,0.375,n,Laura,001,2020-05-13_15h40.08.100,choiceRTT,3.1.3,60,1,0,40,7,1,39
,0,0.362037074,0.009259245,1,0,0,targImage,,,,,,,1.4444,0.375,n,Laura,001,2020-05-13_15h40.08.100,choiceRTT,3.1.3,60,1,0,40,11,1,39
,0,0.13425929,0.016666652,1,0,0,targImage,,,,,,,1.8888,0.125,b,Laura,001,2020-05-13_15h40.08.100,choiceRTT,3.1.3,60,1,0,40,18,1,39
,0,0.336111148,0.045370357,1,0,0,targImage,,,,,,,2.3332,0.375,n,Laura,001,2020-05-13_15h40.08.100,choiceRTT,3.1.3,60,1,0,40,27,1,39
,0,-0.352777762,0.0148148,1,0,0,targImage,,,,,,,2.9998,-0.375,c,Laura,001,2020-05-13_15h40.08.100,choiceRTT,3.1.3,60,1,0,40,36,1,39
,0,0.355555593,0.004629615,1,0,0,targImage,,,,,,,2.111,0.375,n,Laura,001,2020-05-13_15h40.08.100,choiceRTT,3.1.3,60,1,0,40,23,1,39
,0,-0.358333318,0.031481468,1,0,0,targImage,,,,,,,1.6666,-0.375,c,Laura,001,2020-05-13_15h40.08.100,choiceRTT,3.1.3,60,1,0,40,12,1,39
,0,0.361111148,0.017592578,1,0,0,targImage,,,,,,,1.6666,0.375,n,Laura,001,2020-05-13_15h40.08.100,choiceRTT,3.1.3,60,1,0,40,15,1,39
,0,-0.10833331,0.0148148,1,0,0,targImage,,,,,,,1.6666,-0.125,v,Laura,001,2020-05-13_15h40.08.100,choiceRTT,3.1.3,60,1,0,40,13,1,39
,0,0.329629666,0.037962921,1,0,0,targImage,,,,,,,2.5554,0.375,n,Laura,001,2020-05-13_15h40.08.100,choiceRTT,3.1.3,60,1,0,40,31,1,39
,0,-0.092592512,0.032407365,1,0,0,targImage,,,,,,,1.2222,-0.125,v,Laura,001,2020-05-13_15h40.08.100,choiceRTT,3.1.3,60,1,0,40,5,1,39
,0,-0.092592512,0.032407365,1,0,0,targImage,,,,,,,2.9998,-0.125,v,Laura,001,2020-05-13_15h40.08.100,choiceRTT,3.1.3,60,1,0,40,37,1,39
,0,0.40648152,0.041666653,1,0,0,targImage,,,,,,,1.8888,0.375,n,Laura,001,2020-05-13_15h40.08.100,choiceRTT,3.1.3,60,1,0,40,19,1,39
,0,-0.438888875,0.050925913,1,0,0,targImage,,,,,,,1.2222,-0.375,c,Laura,001,2020-05-13_15h40.08.100,choiceRTT,3.1.3,60,1,0,40,4,1,39
,0,-0.212037017,0.008333319,1,0,0,targImage,,,,,,,2.7776,-0.125,v,Laura,001,2020-05-13_15h40.08.100,choiceRTT,3.1.3,60,1,0,40,33,1,39
,0,-0.352777762,0.008333319,1,0,0,targImage,,,,,,,1.8888,-0.375,c,Laura,001,2020-05-13_15h40.08.100,choiceRTT,3.1.3,60,1,0,40,16,1,39
,0,0.13425929,0.043518477,1,0,0,targImage,,,,,,,2.5554,0.125,b,Laura,001,2020-05-13_15h40.08.100,choiceRTT,3.1.3,60,1,0,40,30,1,39
,0,-0.427777764,0.05833332,1,0,0,targImage,,,,,,,2.7776,-0.375,c,Laura,001,2020-05-13_15h40.08.100,choiceRTT,3.1.3,60,1,0,40,32,1,39
,0,-0.332407391,0.029629587,1,0,0,targImage,,,,,,,2.3332,-0.375,c,Laura,001,2020-05-13_15h40.08.100,choiceRTT,3.1.3,60,1,0,40,24,1,39
,0,0.085185214,0.023148134,1,0,0,targImage,,,,,,,2.111,0.125,b,Laura,001,2020-05-13_15h40.08.100,choiceRTT,3.1.3,60,1,0,40,22,1,39
