response.keys,response.corr,mouseResp.x,mouseResp.y,mouseResp.leftButton,mouseResp.midButton,mouseResp.rightButton,mouseResp.clicked_name,practiceTrials.thisRepN,practiceTrials.thisTrialN,practiceTrials.thisN,practiceTrials.thisIndex,practiceTrials.ran,practiceTrials.order,isi,xPos,corrAns,participant,session,date,expName,psychopyVersion,frameRate,mainTrials.thisRepN,mainTrials.thisTrialN,mainTrials.thisN,mainTrials.thisIndex,mainTrials.ran,mainTrials.order
,0,0.136875,0.016228299,1,0,0,targImage,1,0,8,2,1,7,1,0.125,b,lee,001,2020-07-19_20h05.51.122,choiceRTT,3.1.3,60,,,,,,
,0,0.342608507,0.009661458,1,0,0,targImage,1,0,8,7,1,7,1,0.375,n,lee,001,2020-07-19_20h05.51.122,choiceRTT,3.1.3,60,,,,,,
,0,0.401571181,0.001848958,1,0,0,targImage,1,0,8,3,1,7,1,0.375,n,lee,001,2020-07-19_20h05.51.122,choiceRTT,3.1.3,60,,,,,,
,0,-0.377543403,0.028055556,1,0,0,targImage,1,0,8,4,1,7,1,-0.375,c,lee,001,2020-07-19_20h05.51.122,choiceRTT,3.1.3,60,,,,,,
,0,-0.363272569,0.027521701,1,0,0,targImage,1,0,8,0,1,7,1,-0.375,c,lee,001,2020-07-19_20h05.51.122,choiceRTT,3.1.3,60,,,,,,
,0,-0.15344184,0.024613715,1,0,0,targImage,1,0,8,1,1,7,1,-0.125,v,lee,001,2020-07-19_20h05.51.122,choiceRTT,3.1.3,60,,,,,,
,0,0.127417535,0.036918403,1,0,0,targImage,1,0,8,6,1,7,1,0.125,b,lee,001,2020-07-19_20h05.51.122,choiceRTT,3.1.3,60,,,,,,
,0,-0.082005208,0.001875,1,0,0,targImage,1,0,8,5,1,7,1,-0.125,v,lee,001,2020-07-19_20h05.51.122,choiceRTT,3.1.3,60,,,,,,
,0,0.168932292,0.023133681,1,0,0,targImage,,,,,,,1.2222,0.125,b,lee,001,2020-07-19_20h05.51.122,choiceRTT,3.1.3,60,1,0,40,6,1,39
,0,-0.170963542,-0.020425347,1,0,0,targImage,,,,,,,1.2222,-0.125,v,lee,001,2020-07-19_20h05.51.122,choiceRTT,3.1.3,60,1,0,40,5,1,39
,0,0.341332465,0.058914931,1,0,0,targImage,,,,,,,1.8888,0.375,n,lee,001,2020-07-19_20h05.51.122,choiceRTT,3.1.3,60,1,0,40,19,1,39
,0,-0.398519965,-0.053927951,1,0,0,targImage,,,,,,,2.7776,-0.375,c,lee,001,2020-07-19_20h05.51.122,choiceRTT,3.1.3,60,1,0,40,32,1,39
,0,0.096106771,0.025902778,1,0,0,targImage,,,,,,,1.4444,0.125,b,lee,001,2020-07-19_20h05.51.122,choiceRTT,3.1.3,60,1,0,40,10,1,39
,0,-0.119678819,-0.021371528,1,0,0,targImage,,,,,,,2.7776,-0.125,v,lee,001,2020-07-19_20h05.51.122,choiceRTT,3.1.3,60,1,0,40,33,1,39
,0,-0.119678819,-0.023758681,1,0,0,targImage,,,,,,,1.8888,-0.125,v,lee,001,2020-07-19_20h05.51.122,choiceRTT,3.1.3,60,1,0,40,17,1,39
,0,-0.327795139,-0.005099826,1,0,0,targImage,,,,,,,1.2222,-0.375,c,lee,001,2020-07-19_20h05.51.122,choiceRTT,3.1.3,60,1,0,40,4,1,39
,0,-0.327795139,-0.005099826,1,0,0,targImage,,,,,,,1.4444,-0.375,c,lee,001,2020-07-19_20h05.51.122,choiceRTT,3.1.3,60,1,0,40,8,1,39
,0,-0.326896701,0.002374132,1,0,0,targImage,,,,,,,1.6666,-0.375,c,lee,001,2020-07-19_20h05.51.122,choiceRTT,3.1.3,60,1,0,40,12,1,39
,0,0.08500434,0.030638021,1,0,0,targImage,,,,,,,2.111,0.125,b,lee,001,2020-07-19_20h05.51.122,choiceRTT,3.1.3,60,1,0,40,22,1,39
,0,0.343823785,-0.01624566,1,0,0,targImage,,,,,,,2.5554,0.375,n,lee,001,2020-07-19_20h05.51.122,choiceRTT,3.1.3,60,1,0,40,31,1,39
,0,-0.13047309,0.006137153,1,0,0,targImage,,,,,,,1.4444,-0.125,v,lee,001,2020-07-19_20h05.51.122,choiceRTT,3.1.3,60,1,0,40,9,1,39
,0,0.084019097,0.029965278,1,0,0,targImage,,,,,,,2.9998,0.125,b,lee,001,2020-07-19_20h05.51.122,choiceRTT,3.1.3,60,1,0,40,38,1,39
,0,-0.187226562,-0.012934028,1,0,0,targImage,,,,,,,1,-0.125,v,lee,001,2020-07-19_20h05.51.122,choiceRTT,3.1.3,60,1,0,40,1,1,39
,0,0.318849826,0.057465278,1,0,0,targImage,,,,,,,1.4444,0.375,n,lee,001,2020-07-19_20h05.51.122,choiceRTT,3.1.3,60,1,0,40,11,1,39
,0,-0.174904514,-0.051540799,1,0,0,targImage,,,,,,,2.5554,-0.125,v,lee,001,2020-07-19_20h05.51.122,choiceRTT,3.1.3,60,1,0,40,29,1,39
,0,0.072929688,-0.01687066,1,0,0,targImage,,,,,,,1,0.125,b,lee,001,2020-07-19_20h05.51.122,choiceRTT,3.1.3,60,1,0,40,2,1,39
,0,-0.301453993,0.019574653,1,0,0,targImage,,,,,,,2.111,-0.375,c,lee,001,2020-07-19_20h05.51.122,choiceRTT,3.1.3,60,1,0,40,20,1,39
,0,0.218168403,0.055868056,1,0,0,targImage,,,,,,,2.3332,0.125,b,lee,001,2020-07-19_20h05.51.122,choiceRTT,3.1.3,60,1,0,40,26,1,39
,0,-0.3178125,0.008823785,1,0,0,targImage,,,,,,,1.8888,-0.375,c,lee,001,2020-07-19_20h05.51.122,choiceRTT,3.1.3,60,1,0,40,16,1,39
,0,-0.172534722,0.011679688,1,0,0,targImage,,,,,,,2.3332,-0.125,v,lee,001,2020-07-19_20h05.51.122,choiceRTT,3.1.3,60,1,0,40,25,1,39
,0,0.394344618,0.038111979,1,0,0,targImage,,,,,,,1.6666,0.375,n,lee,001,2020-07-19_20h05.51.122,choiceRTT,3.1.3,60,1,0,40,15,1,39
,0,-0.088988715,-0.015277778,1,0,0,targImage,,,,,,,2.9998,-0.125,v,lee,001,2020-07-19_20h05.51.122,choiceRTT,3.1.3,60,1,0,40,37,1,39
,0,0.400789931,0.053932292,1,0,0,targImage,,,,,,,1.2222,0.375,n,lee,001,2020-07-19_20h05.51.122,choiceRTT,3.1.3,60,1,0,40,7,1,39
,0,0.201953125,0.024917535,1,0,0,targImage,,,,,,,2.5554,0.125,b,lee,001,2020-07-19_20h05.51.122,choiceRTT,3.1.3,60,1,0,40,30,1,39
,0,0.342039931,0.064496528,1,0,0,targImage,,,,,,,2.9998,0.375,n,lee,001,2020-07-19_20h05.51.122,choiceRTT,3.1.3,60,1,0,40,39,1,39
,0,0.340256076,0.06391059,1,0,0,targImage,,,,,,,1,0.375,n,lee,001,2020-07-19_20h05.51.122,choiceRTT,3.1.3,60,1,0,40,3,1,39
,0,0.170499132,0.025516493,1,0,0,targImage,,,,,,,1.6666,0.125,b,lee,001,2020-07-19_20h05.51.122,choiceRTT,3.1.3,60,1,0,40,14,1,39
,0,-0.340529514,-0.00483941,1,0,0,targImage,,,,,,,2.5554,-0.375,c,lee,001,2020-07-19_20h05.51.122,choiceRTT,3.1.3,60,1,0,40,28,1,39
,0,-0.340529514,-0.00483941,1,0,0,targImage,,,,,,,2.3332,-0.375,c,lee,001,2020-07-19_20h05.51.122,choiceRTT,3.1.3,60,1,0,40,24,1,39
,0,-0.340529514,-0.002751736,1,0,0,targImage,,,,,,,2.9998,-0.375,c,lee,001,2020-07-19_20h05.51.122,choiceRTT,3.1.3,60,1,0,40,36,1,39
,0,0.121189236,0.044856771,1,0,0,targImage,,,,,,,1.8888,0.125,b,lee,001,2020-07-19_20h05.51.122,choiceRTT,3.1.3,60,1,0,40,18,1,39
,0,0.121705729,0.045577257,1,0,0,targImage,,,,,,,2.7776,0.125,b,lee,001,2020-07-19_20h05.51.122,choiceRTT,3.1.3,60,1,0,40,34,1,39
,0,-0.16984809,-0.010924479,1,0,0,targImage,,,,,,,1.6666,-0.125,v,lee,001,2020-07-19_20h05.51.122,choiceRTT,3.1.3,60,1,0,40,13,1,39
,0,0.29796875,-0.03578559,1,0,0,targImage,,,,,,,2.7776,0.375,n,lee,001,2020-07-19_20h05.51.122,choiceRTT,3.1.3,60,1,0,40,35,1,39
,0,0.307686632,-0.031896701,1,0,0,targImage,,,,,,,2.111,0.375,n,lee,001,2020-07-19_20h05.51.122,choiceRTT,3.1.3,60,1,0,40,23,1,39
,0,-0.181835937,-0.008155382,1,0,0,targImage,,,,,,,2.111,-0.125,v,lee,001,2020-07-19_20h05.51.122,choiceRTT,3.1.3,60,1,0,40,21,1,39
,0,-0.335082465,-0.011610243,1,0,0,targImage,,,,,,,1,-0.375,c,lee,001,2020-07-19_20h05.51.122,choiceRTT,3.1.3,60,1,0,40,0,1,39
,0,0.389075521,0.073012153,1,0,0,targImage,,,,,,,2.3332,0.375,n,lee,001,2020-07-19_20h05.51.122,choiceRTT,3.1.3,60,1,0,40,27,1,39
