response.keys,response.corr,mouseResp.x,mouseResp.y,mouseResp.leftButton,mouseResp.midButton,mouseResp.rightButton,mouseResp.clicked_name,practiceTrials.thisRepN,practiceTrials.thisTrialN,practiceTrials.thisN,practiceTrials.thisIndex,practiceTrials.ran,practiceTrials.order,isi,xPos,corrAns,participant,session,date,expName,psychopyVersion,frameRate,mainTrials.thisRepN,mainTrials.thisTrialN,mainTrials.thisN,mainTrials.thisIndex,mainTrials.ran,mainTrials.order
,0,0.050694444,0.023611111,1,0,0,targImage,1,0,8,2,1,7,1,0.125,b,ludwig,001,2021-12-10_11h08.20.895,choiceRTT,3.1.3,60,,,,,,
,0,0.373611111,-0.035416667,1,0,0,targImage,1,0,8,3,1,7,1,0.375,n,ludwig,001,2021-12-10_11h08.20.895,choiceRTT,3.1.3,60,,,,,,
,0,-0.327083333,-0.00625,1,0,0,targImage,1,0,8,4,1,7,1,-0.375,c,ludwig,001,2021-12-10_11h08.20.895,choiceRTT,3.1.3,60,,,,,,
,0,0.159722222,-0.013194444,1,0,0,targImage,1,0,8,6,1,7,1,0.125,b,ludwig,001,2021-12-10_11h08.20.895,choiceRTT,3.1.3,60,,,,,,
,0,0.280555556,-0.031944444,1,0,0,targImage,1,0,8,7,1,7,1,0.375,n,ludwig,001,2021-12-10_11h08.20.895,choiceRTT,3.1.3,60,,,,,,
,0,-0.1875,-0.027083333,1,0,0,targImage,1,0,8,5,1,7,1,-0.125,v,ludwig,001,2021-12-10_11h08.20.895,choiceRTT,3.1.3,60,,,,,,
,0,-0.368055556,0.026388889,1,0,0,targImage,1,0,8,0,1,7,1,-0.375,c,ludwig,001,2021-12-10_11h08.20.895,choiceRTT,3.1.3,60,,,,,,
,0,-0.088194444,-0.006944444,1,0,0,targImage,1,0,8,1,1,7,1,-0.125,v,ludwig,001,2021-12-10_11h08.20.895,choiceRTT,3.1.3,60,,,,,,
,0,0.371527778,-0.002777778,1,0,0,targImage,,,,,,,1.6666,0.375,n,ludwig,001,2021-12-10_11h08.20.895,choiceRTT,3.1.3,60,1,0,40,15,1,39
,0,0.335416667,-0.019444444,1,0,0,targImage,,,,,,,2.9998,0.375,n,ludwig,001,2021-12-10_11h08.20.895,choiceRTT,3.1.3,60,1,0,40,39,1,39
,0,-0.165277778,0.004166667,1,0,0,targImage,,,,,,,2.3332,-0.125,v,ludwig,001,2021-12-10_11h08.20.895,choiceRTT,3.1.3,60,1,0,40,25,1,39
,0,-0.359027778,0.002777778,1,0,0,targImage,,,,,,,1.2222,-0.375,c,ludwig,001,2021-12-10_11h08.20.895,choiceRTT,3.1.3,60,1,0,40,4,1,39
,0,-0.121527778,0.006944444,1,0,0,targImage,,,,,,,1,-0.125,v,ludwig,001,2021-12-10_11h08.20.895,choiceRTT,3.1.3,60,1,0,40,1,1,39
,0,-0.111111111,-0.002083333,1,0,0,targImage,,,,,,,1.8888,-0.125,v,ludwig,001,2021-12-10_11h08.20.895,choiceRTT,3.1.3,60,1,0,40,17,1,39
,0,0.384027778,-0.0375,1,0,0,targImage,,,,,,,1,0.375,n,ludwig,001,2021-12-10_11h08.20.895,choiceRTT,3.1.3,60,1,0,40,3,1,39
,0,-0.349305556,0.013194444,1,0,0,targImage,,,,,,,1,-0.375,c,ludwig,001,2021-12-10_11h08.20.895,choiceRTT,3.1.3,60,1,0,40,0,1,39
,0,0.19375,-0.011111111,1,0,0,targImage,,,,,,,2.3332,0.125,b,ludwig,001,2021-12-10_11h08.20.895,choiceRTT,3.1.3,60,1,0,40,26,1,39
,0,-0.094444444,0.001388889,1,0,0,targImage,,,,,,,2.5554,-0.125,v,ludwig,001,2021-12-10_11h08.20.895,choiceRTT,3.1.3,60,1,0,40,29,1,39
,0,0.105555556,-0.009722222,1,0,0,targImage,,,,,,,1.2222,0.125,b,ludwig,001,2021-12-10_11h08.20.895,choiceRTT,3.1.3,60,1,0,40,6,1,39
,0,0.210416667,-0.023611111,1,0,0,targImage,,,,,,,1,0.125,b,ludwig,001,2021-12-10_11h08.20.895,choiceRTT,3.1.3,60,1,0,40,2,1,39
,0,-0.304166667,0.011805556,1,0,0,targImage,,,,,,,2.7776,-0.375,c,ludwig,001,2021-12-10_11h08.20.895,choiceRTT,3.1.3,60,1,0,40,32,1,39
,0,0.291666667,-0.018055556,1,0,0,targImage,,,,,,,1.8888,0.375,n,ludwig,001,2021-12-10_11h08.20.895,choiceRTT,3.1.3,60,1,0,40,19,1,39
,0,-0.05625,-0.027777778,1,0,0,targImage,,,,,,,2.9998,-0.125,v,ludwig,001,2021-12-10_11h08.20.895,choiceRTT,3.1.3,60,1,0,40,37,1,39
,0,0.085416667,0.000694444,1,0,0,targImage,,,,,,,1.8888,0.125,b,ludwig,001,2021-12-10_11h08.20.895,choiceRTT,3.1.3,60,1,0,40,18,1,39
,0,0.1375,0.004861111,1,0,0,targImage,,,,,,,2.5554,0.125,b,ludwig,001,2021-12-10_11h08.20.895,choiceRTT,3.1.3,60,1,0,40,30,1,39
,0,0.41875,-0.008333333,1,0,0,targImage,,,,,,,1.2222,0.375,n,ludwig,001,2021-12-10_11h08.20.895,choiceRTT,3.1.3,60,1,0,40,7,1,39
,0,-0.161805556,-0.006944444,1,0,0,targImage,,,,,,,2.111,-0.125,v,ludwig,001,2021-12-10_11h08.20.895,choiceRTT,3.1.3,60,1,0,40,21,1,39
,0,0.386805556,-0.05,1,0,0,targImage,,,,,,,1.4444,0.375,n,ludwig,001,2021-12-10_11h08.20.895,choiceRTT,3.1.3,60,1,0,40,11,1,39
,0,0.421527778,-0.004861111,1,0,0,targImage,,,,,,,2.3332,0.375,n,ludwig,001,2021-12-10_11h08.20.895,choiceRTT,3.1.3,60,1,0,40,27,1,39
,0,0.295833333,0.016666667,1,0,0,targImage,,,,,,,2.111,0.375,n,ludwig,001,2021-12-10_11h08.20.895,choiceRTT,3.1.3,60,1,0,40,23,1,39
,0,-0.386805556,0.024305556,1,0,0,targImage,,,,,,,2.111,-0.375,c,ludwig,001,2021-12-10_11h08.20.895,choiceRTT,3.1.3,60,1,0,40,20,1,39
,0,-0.380555556,0.026388889,1,0,0,targImage,,,,,,,2.3332,-0.375,c,ludwig,001,2021-12-10_11h08.20.895,choiceRTT,3.1.3,60,1,0,40,24,1,39
,0,-0.416666667,0.018055556,1,0,0,targImage,,,,,,,1.8888,-0.375,c,ludwig,001,2021-12-10_11h08.20.895,choiceRTT,3.1.3,60,1,0,40,16,1,39
,0,-0.427777778,0.030555556,1,0,0,targImage,,,,,,,2.5554,-0.375,c,ludwig,001,2021-12-10_11h08.20.895,choiceRTT,3.1.3,60,1,0,40,28,1,39
,0,-0.067361111,0.010416667,1,0,0,targImage,,,,,,,1.6666,-0.125,v,ludwig,001,2021-12-10_11h08.20.895,choiceRTT,3.1.3,60,1,0,40,13,1,39
,0,-0.375,0.005555556,1,0,0,targImage,,,,,,,1.4444,-0.375,c,ludwig,001,2021-12-10_11h08.20.895,choiceRTT,3.1.3,60,1,0,40,8,1,39
,0,0.290277778,0.007638889,1,0,0,targImage,,,,,,,2.7776,0.375,n,ludwig,001,2021-12-10_11h08.20.895,choiceRTT,3.1.3,60,1,0,40,35,1,39
,0,-0.421527778,-0.016666667,1,0,0,targImage,,,,,,,2.9998,-0.375,c,ludwig,001,2021-12-10_11h08.20.895,choiceRTT,3.1.3,60,1,0,40,36,1,39
,0,-0.128472222,-0.004861111,1,0,0,targImage,,,,,,,1.2222,-0.125,v,ludwig,001,2021-12-10_11h08.20.895,choiceRTT,3.1.3,60,1,0,40,5,1,39
,0,0.4625,-0.053472222,1,0,0,targImage,,,,,,,2.5554,0.375,n,ludwig,001,2021-12-10_11h08.20.895,choiceRTT,3.1.3,60,1,0,40,31,1,39
,0,0.075694444,0.013194444,1,0,0,targImage,,,,,,,1.6666,0.125,b,ludwig,001,2021-12-10_11h08.20.895,choiceRTT,3.1.3,60,1,0,40,14,1,39
,0,0.094444444,0.009722222,1,0,0,targImage,,,,,,,2.7776,0.125,b,ludwig,001,2021-12-10_11h08.20.895,choiceRTT,3.1.3,60,1,0,40,34,1,39
,0,0.046527778,0.004166667,1,0,0,targImage,,,,,,,2.111,0.125,b,ludwig,001,2021-12-10_11h08.20.895,choiceRTT,3.1.3,60,1,0,40,22,1,39
,0,-0.040277778,-0.002777778,1,0,0,targImage,,,,,,,2.7776,-0.125,v,ludwig,001,2021-12-10_11h08.20.895,choiceRTT,3.1.3,60,1,0,40,33,1,39
,0,-0.374305556,0.010416667,1,0,0,targImage,,,,,,,1.6666,-0.375,c,ludwig,001,2021-12-10_11h08.20.895,choiceRTT,3.1.3,60,1,0,40,12,1,39
,0,0.042361111,0.010416667,1,0,0,targImage,,,,,,,1.4444,0.125,b,ludwig,001,2021-12-10_11h08.20.895,choiceRTT,3.1.3,60,1,0,40,10,1,39
,0,0.046527778,0.015277778,1,0,0,targImage,,,,,,,2.9998,0.125,b,ludwig,001,2021-12-10_11h08.20.895,choiceRTT,3.1.3,60,1,0,40,38,1,39
,0,-0.075,0.005555556,1,0,0,targImage,,,,,,,1.4444,-0.125,v,ludwig,001,2021-12-10_11h08.20.895,choiceRTT,3.1.3,60,1,0,40,9,1,39
