response.keys,response.corr,mouseResp.x,mouseResp.y,mouseResp.leftButton,mouseResp.midButton,mouseResp.rightButton,mouseResp.clicked_name,practiceTrials.thisRepN,practiceTrials.thisTrialN,practiceTrials.thisN,practiceTrials.thisIndex,practiceTrials.ran,practiceTrials.order,isi,xPos,corrAns,participant,session,date,expName,psychopyVersion,frameRate,mainTrials.thisRepN,mainTrials.thisTrialN,mainTrials.thisN,mainTrials.thisIndex,mainTrials.ran,mainTrials.order
,0,-0.135114046,-0.001926469,1,0,0,targImage,1,0,8,1,1,7,1,-0.125,v,Massich,001,2020-07-06_19h34.02.399,choiceRTT,3.1.3,60,,,,,,
,0,-0.125950192,-0.010673773,1,0,0,targImage,1,0,8,5,1,7,1,-0.125,v,Massich,001,2020-07-06_19h34.02.399,choiceRTT,3.1.3,60,,,,,,
,0,-0.389617834,0.002655401,1,0,0,targImage,1,0,8,4,1,7,1,-0.375,c,Massich,001,2020-07-06_19h34.02.399,choiceRTT,3.1.3,60,,,,,,
,0,-0.358794136,-0.015672192,1,0,0,targImage,1,0,8,0,1,7,1,-0.375,c,Massich,001,2020-07-06_19h34.02.399,choiceRTT,3.1.3,60,,,,,,
,0,0.125637809,-0.04274709,1,0,0,targImage,1,0,8,2,1,7,1,0.125,b,Massich,001,2020-07-06_19h34.02.399,choiceRTT,3.1.3,60,,,,,,
,0,0.388472352,0.007653877,1,0,0,targImage,1,0,8,3,1,7,1,0.375,n,Massich,001,2020-07-06_19h34.02.399,choiceRTT,3.1.3,60,,,,,,
,0,0.381807794,0.012652296,1,0,0,targImage,1,0,8,7,1,7,1,0.375,n,Massich,001,2020-07-06_19h34.02.399,choiceRTT,3.1.3,60,,,,,,
,0,0.133552015,-0.041913992,1,0,0,targImage,1,0,8,6,1,7,1,0.125,b,Massich,001,2020-07-06_19h34.02.399,choiceRTT,3.1.3,60,,,,,,
,0,-0.097625761,-0.028584817,1,0,0,targImage,,,,,,,1.8888,-0.125,v,Massich,001,2020-07-06_19h34.02.399,choiceRTT,3.1.3,60,1,0,40,17,1,39
,0,0.149380427,-0.02108716,1,0,0,targImage,,,,,,,2.7776,0.125,b,Massich,001,2020-07-06_19h34.02.399,choiceRTT,3.1.3,60,1,0,40,34,1,39
,0,-0.380870558,0.015151534,1,0,0,targImage,,,,,,,1.6666,-0.375,c,Massich,001,2020-07-06_19h34.02.399,choiceRTT,3.1.3,60,1,0,40,12,1,39
,0,0.140633123,-0.005675297,1,0,0,targImage,,,,,,,2.9998,0.125,b,Massich,001,2020-07-06_19h34.02.399,choiceRTT,3.1.3,60,1,0,40,38,1,39
,0,0.399302289,-0.052327379,1,0,0,targImage,,,,,,,2.7776,0.375,n,Massich,001,2020-07-06_19h34.02.399,choiceRTT,3.1.3,60,1,0,40,35,1,39
,0,0.417629882,-0.014839094,1,0,0,targImage,,,,,,,2.9998,0.375,n,Massich,001,2020-07-06_19h34.02.399,choiceRTT,3.1.3,60,1,0,40,39,1,39
,0,-0.109288739,0.00473809,1,0,0,targImage,,,,,,,1.2222,-0.125,v,Massich,001,2020-07-06_19h34.02.399,choiceRTT,3.1.3,60,1,0,40,5,1,39
,0,-0.115536805,-0.028168268,1,0,0,targImage,,,,,,,1.6666,-0.125,v,Massich,001,2020-07-06_19h34.02.399,choiceRTT,3.1.3,60,1,0,40,13,1,39
,0,0.143965459,0.011819198,1,0,0,targImage,,,,,,,2.5554,0.125,b,Massich,001,2020-07-06_19h34.02.399,choiceRTT,3.1.3,60,1,0,40,30,1,39
,0,0.079818826,-0.025252538,1,0,0,targImage,,,,,,,2.111,0.125,b,Massich,001,2020-07-06_19h34.02.399,choiceRTT,3.1.3,60,1,0,40,22,1,39
,0,0.385140073,0.012652296,1,0,0,targImage,,,,,,,1.6666,0.375,n,Massich,001,2020-07-06_19h34.02.399,choiceRTT,3.1.3,60,1,0,40,15,1,39
,0,0.299333567,-0.008591084,1,0,0,targImage,,,,,,,1,0.375,n,Massich,001,2020-07-06_19h34.02.399,choiceRTT,3.1.3,60,1,0,40,3,1,39
,0,0.326825014,-0.038998261,1,0,0,targImage,,,,,,,2.3332,0.375,n,Massich,001,2020-07-06_19h34.02.399,choiceRTT,3.1.3,60,1,0,40,27,1,39
,0,0.350567518,-0.010257224,1,0,0,targImage,,,,,,,1.2222,0.375,n,Massich,001,2020-07-06_19h34.02.399,choiceRTT,3.1.3,60,1,0,40,7,1,39
,0,0.34681869,0.010569607,1,0,0,targImage,,,,,,,2.111,0.375,n,Massich,001,2020-07-06_19h34.02.399,choiceRTT,3.1.3,60,1,0,40,23,1,39
,0,-0.145110884,-0.032333646,1,0,0,targImage,,,,,,,2.9998,-0.125,v,Massich,001,2020-07-06_19h34.02.399,choiceRTT,3.1.3,60,1,0,40,37,1,39
,0,-0.378787869,-0.009424126,1,0,0,targImage,,,,,,,2.111,-0.375,c,Massich,001,2020-07-06_19h34.02.399,choiceRTT,3.1.3,60,1,0,40,20,1,39
,0,-0.095959564,-0.037748614,1,0,0,targImage,,,,,,,2.7776,-0.125,v,Massich,001,2020-07-06_19h34.02.399,choiceRTT,3.1.3,60,1,0,40,33,1,39
,0,0.14521505,0.013068845,1,0,0,targImage,,,,,,,1.8888,0.125,b,Massich,001,2020-07-06_19h34.02.399,choiceRTT,3.1.3,60,1,0,40,18,1,39
,0,-0.092627285,0.047641372,1,0,0,targImage,,,,,,,2.3332,-0.125,v,Massich,001,2020-07-06_19h34.02.399,choiceRTT,3.1.3,60,1,0,40,25,1,39
,0,-0.378371349,0.008486918,1,0,0,targImage,,,,,,,2.7776,-0.375,c,Massich,001,2020-07-06_19h34.02.399,choiceRTT,3.1.3,60,1,0,40,32,1,39
,0,-0.10095804,-0.044829722,1,0,0,targImage,,,,,,,2.5554,-0.125,v,Massich,001,2020-07-06_19h34.02.399,choiceRTT,3.1.3,60,1,0,40,29,1,39
,0,-0.362542965,0.010153058,1,0,0,targImage,,,,,,,2.5554,-0.375,c,Massich,001,2020-07-06_19h34.02.399,choiceRTT,3.1.3,60,1,0,40,28,1,39
,0,0.172289948,-0.020254119,1,0,0,targImage,,,,,,,1,0.125,b,Massich,001,2020-07-06_19h34.02.399,choiceRTT,3.1.3,60,1,0,40,2,1,39
,0,-0.371706761,0.0034885,1,0,0,targImage,,,,,,,1.4444,-0.375,c,Massich,001,2020-07-06_19h34.02.399,choiceRTT,3.1.3,60,1,0,40,8,1,39
,0,-0.362126416,-0.000260329,1,0,0,targImage,,,,,,,1.8888,-0.375,c,Massich,001,2020-07-06_19h34.02.399,choiceRTT,3.1.3,60,1,0,40,16,1,39
,0,-0.355878378,-0.004009157,1,0,0,targImage,,,,,,,1.2222,-0.375,c,Massich,001,2020-07-06_19h34.02.399,choiceRTT,3.1.3,60,1,0,40,4,1,39
,0,0.034832884,-0.09606373,1,0,0,targImage,,,,,,,1.2222,0.125,b,Massich,001,2020-07-06_19h34.02.399,choiceRTT,3.1.3,60,1,0,40,6,1,39
,0,0.402218019,0.009320017,1,0,0,targImage,,,,,,,2.5554,0.375,n,Massich,001,2020-07-06_19h34.02.399,choiceRTT,3.1.3,60,1,0,40,31,1,39
,0,-0.357961038,-0.001509977,1,0,0,targImage,,,,,,,2.9998,-0.375,c,Massich,001,2020-07-06_19h34.02.399,choiceRTT,3.1.3,60,1,0,40,36,1,39
,0,0.076486546,-0.037332065,1,0,0,targImage,,,,,,,2.3332,0.125,b,Massich,001,2020-07-06_19h34.02.399,choiceRTT,3.1.3,60,1,0,40,26,1,39
,0,-0.10387377,-0.020670611,1,0,0,targImage,,,,,,,1.4444,-0.125,v,Massich,001,2020-07-06_19h34.02.399,choiceRTT,3.1.3,60,1,0,40,9,1,39
,0,0.380558146,-0.006091846,1,0,0,targImage,,,,,,,1.4444,0.375,n,Massich,001,2020-07-06_19h34.02.399,choiceRTT,3.1.3,60,1,0,40,11,1,39
,0,0.367229029,-0.034832884,1,0,0,targImage,,,,,,,1.8888,0.375,n,Massich,001,2020-07-06_19h34.02.399,choiceRTT,3.1.3,60,1,0,40,19,1,39
,0,0.099812559,-0.077319588,1,0,0,targImage,,,,,,,1.6666,0.125,b,Massich,001,2020-07-06_19h34.02.399,choiceRTT,3.1.3,60,1,0,40,14,1,39
,0,-0.129699021,-0.037748614,1,0,0,targImage,,,,,,,2.111,-0.125,v,Massich,001,2020-07-06_19h34.02.399,choiceRTT,3.1.3,60,1,0,40,21,1,39
,0,0.163959192,-0.032750195,1,0,0,targImage,,,,,,,1.4444,0.125,b,Massich,001,2020-07-06_19h34.02.399,choiceRTT,3.1.3,60,1,0,40,10,1,39
,0,-0.365458695,0.015568026,1,0,0,targImage,,,,,,,1,-0.375,c,Massich,001,2020-07-06_19h34.02.399,choiceRTT,3.1.3,60,1,0,40,0,1,39
,0,-0.356711448,0.008903468,1,0,0,targImage,,,,,,,2.3332,-0.375,c,Massich,001,2020-07-06_19h34.02.399,choiceRTT,3.1.3,60,1,0,40,24,1,39
,0,-0.091794244,-0.043580131,1,0,0,targImage,,,,,,,1,-0.125,v,Massich,001,2020-07-06_19h34.02.399,choiceRTT,3.1.3,60,1,0,40,1,1,39
