response.keys,response.corr,mouseResp.x,mouseResp.y,mouseResp.leftButton,mouseResp.midButton,mouseResp.rightButton,mouseResp.clicked_name,practiceTrials.thisRepN,practiceTrials.thisTrialN,practiceTrials.thisN,practiceTrials.thisIndex,practiceTrials.ran,practiceTrials.order,isi,xPos,corrAns,participant,session,date,expName,psychopyVersion,frameRate,mainTrials.thisRepN,mainTrials.thisTrialN,mainTrials.thisN,mainTrials.thisIndex,mainTrials.ran,mainTrials.order
,0,0.131431636,0.006477073,1,0,0,targImage,1,0,8,6,1,7,1,0.125,b,mm,001,2021-03-25_17h42.33.874,choiceRTT,3.1.3,60,,,,,,
,0,-0.055879268,-0.000371297,1,0,0,targImage,1,0,8,1,1,7,1,-0.125,v,mm,001,2021-03-25_17h42.33.874,choiceRTT,3.1.3,60,,,,,,
,0,-0.288069774,0.005427212,1,0,0,targImage,1,0,8,4,1,7,1,-0.375,c,mm,001,2021-03-25_17h42.33.874,choiceRTT,3.1.3,60,,,,,,
,0,-0.190547463,-0.008460377,1,0,0,targImage,1,0,8,5,1,7,1,-0.125,v,mm,001,2021-03-25_17h42.33.874,choiceRTT,3.1.3,60,,,,,,
,0,-0.334547198,-0.010424579,1,0,0,targImage,1,0,8,0,1,7,1,-0.375,c,mm,001,2021-03-25_17h42.33.874,choiceRTT,3.1.3,60,,,,,,
,0,0.290193911,-0.009442534,1,0,0,targImage,1,0,8,7,1,7,1,0.375,n,mm,001,2021-03-25_17h42.33.874,choiceRTT,3.1.3,60,,,,,,
,0,0.312919899,-0.020684984,1,0,0,targImage,1,0,8,3,1,7,1,0.375,n,mm,001,2021-03-25_17h42.33.874,choiceRTT,3.1.3,60,,,,,,
,0,0.122358308,-0.011491168,1,0,0,targImage,1,0,8,2,1,7,1,0.125,b,mm,001,2021-03-25_17h42.33.874,choiceRTT,3.1.3,60,,,,,,
,0,0.144427038,-0.019389174,1,0,0,targImage,,,,,,,2.3332,0.125,b,mm,001,2021-03-25_17h42.33.874,choiceRTT,3.1.3,60,1,0,40,26,1,39
,0,-0.327470681,-0.007777122,1,0,0,targImage,,,,,,,1.4444,-0.375,c,mm,001,2021-03-25_17h42.33.874,choiceRTT,3.1.3,60,1,0,40,8,1,39
,0,-0.345263163,0.003150262,1,0,0,targImage,,,,,,,2.7776,-0.375,c,mm,001,2021-03-25_17h42.33.874,choiceRTT,3.1.3,60,1,0,40,32,1,39
,0,-0.150561636,0.001356111,1,0,0,targImage,,,,,,,2.3332,-0.125,v,mm,001,2021-03-25_17h42.33.874,choiceRTT,3.1.3,60,1,0,40,25,1,39
,0,0.130542218,-0.001187134,1,0,0,targImage,,,,,,,1.6666,0.125,b,mm,001,2021-03-25_17h42.33.874,choiceRTT,3.1.3,60,1,0,40,14,1,39
,0,0.364241536,-0.004318915,1,0,0,targImage,,,,,,,1.4444,0.375,n,mm,001,2021-03-25_17h42.33.874,choiceRTT,3.1.3,60,1,0,40,11,1,39
,0,-0.136185823,0.002864357,1,0,0,targImage,,,,,,,1.4444,-0.125,v,mm,001,2021-03-25_17h42.33.874,choiceRTT,3.1.3,60,1,0,40,9,1,39
,0,0.358917688,0.016137356,1,0,0,targImage,,,,,,,2.7776,0.375,n,mm,001,2021-03-25_17h42.33.874,choiceRTT,3.1.3,60,1,0,40,35,1,39
,0,-0.4311216,0.018340047,1,0,0,targImage,,,,,,,1,-0.375,c,mm,001,2021-03-25_17h42.33.874,choiceRTT,3.1.3,60,1,0,40,0,1,39
,0,0.11662089,-0.00298931,1,0,0,targImage,,,,,,,1.4444,0.125,b,mm,001,2021-03-25_17h42.33.874,choiceRTT,3.1.3,60,1,0,40,10,1,39
,0,-0.067753205,0.000992952,1,0,0,targImage,,,,,,,2.9998,-0.125,v,mm,001,2021-03-25_17h42.33.874,choiceRTT,3.1.3,60,1,0,40,37,1,39
,0,0.109458076,0.004297949,1,0,0,targImage,,,,,,,1,0.125,b,mm,001,2021-03-25_17h42.33.874,choiceRTT,3.1.3,60,1,0,40,2,1,39
,0,0.356786092,0.003445209,1,0,0,targImage,,,,,,,1.6666,0.375,n,mm,001,2021-03-25_17h42.33.874,choiceRTT,3.1.3,60,1,0,40,15,1,39
,0,-0.423448181,0.01899674,1,0,0,targImage,,,,,,,1.8888,-0.375,c,mm,001,2021-03-25_17h42.33.874,choiceRTT,3.1.3,60,1,0,40,16,1,39
,0,-0.128581916,-0.006491541,1,0,0,targImage,,,,,,,2.111,-0.125,v,mm,001,2021-03-25_17h42.33.874,choiceRTT,3.1.3,60,1,0,40,21,1,39
,0,-0.313470968,0.010740718,1,0,0,targImage,,,,,,,2.3332,-0.375,c,mm,001,2021-03-25_17h42.33.874,choiceRTT,3.1.3,60,1,0,40,24,1,39
,0,-0.117719919,0.004314168,1,0,0,targImage,,,,,,,1.6666,-0.125,v,mm,001,2021-03-25_17h42.33.874,choiceRTT,3.1.3,60,1,0,40,13,1,39
,0,0.12542103,-0.002194157,1,0,0,targImage,,,,,,,2.9998,0.125,b,mm,001,2021-03-25_17h42.33.874,choiceRTT,3.1.3,60,1,0,40,38,1,39
,0,0.320468705,0.004641667,1,0,0,targImage,,,,,,,2.5554,0.375,n,mm,001,2021-03-25_17h42.33.874,choiceRTT,3.1.3,60,1,0,40,31,1,39
,0,-0.374214624,0.019714921,1,0,0,targImage,,,,,,,2.9998,-0.375,c,mm,001,2021-03-25_17h42.33.874,choiceRTT,3.1.3,60,1,0,40,36,1,39
,0,0.140614375,0.013141434,1,0,0,targImage,,,,,,,2.111,0.125,b,mm,001,2021-03-25_17h42.33.874,choiceRTT,3.1.3,60,1,0,40,22,1,39
,0,0.344197817,0.031052427,1,0,0,targImage,,,,,,,1,0.375,n,mm,001,2021-03-25_17h42.33.874,choiceRTT,3.1.3,60,1,0,40,3,1,39
,0,-0.108447661,0.007036958,1,0,0,targImage,,,,,,,2.5554,-0.125,v,mm,001,2021-03-25_17h42.33.874,choiceRTT,3.1.3,60,1,0,40,29,1,39
,0,-0.135586322,0.000701,1,0,0,targImage,,,,,,,1,-0.125,v,mm,001,2021-03-25_17h42.33.874,choiceRTT,3.1.3,60,1,0,40,1,1,39
,0,0.361766222,0.011713777,1,0,0,targImage,,,,,,,2.111,0.375,n,mm,001,2021-03-25_17h42.33.874,choiceRTT,3.1.3,60,1,0,40,23,1,39
,0,0.421434982,-0.017267637,1,0,0,targImage,,,,,,,1.8888,0.375,n,mm,001,2021-03-25_17h42.33.874,choiceRTT,3.1.3,60,1,0,40,19,1,39
,0,0.354860207,-0.001606072,1,0,0,targImage,,,,,,,1.2222,0.375,n,mm,001,2021-03-25_17h42.33.874,choiceRTT,3.1.3,60,1,0,40,7,1,39
,0,0.134751496,0.001356619,1,0,0,targImage,,,,,,,2.7776,0.125,b,mm,001,2021-03-25_17h42.33.874,choiceRTT,3.1.3,60,1,0,40,34,1,39
,0,0.091340807,-0.004279017,1,0,0,targImage,,,,,,,1.2222,0.125,b,mm,001,2021-03-25_17h42.33.874,choiceRTT,3.1.3,60,1,0,40,6,1,39
,0,-0.430098781,-0.01254555,1,0,0,targImage,,,,,,,2.5554,-0.375,c,mm,001,2021-03-25_17h42.33.874,choiceRTT,3.1.3,60,1,0,40,28,1,39
,0,-0.327787272,-0.000243802,1,0,0,targImage,,,,,,,1.2222,-0.375,c,mm,001,2021-03-25_17h42.33.874,choiceRTT,3.1.3,60,1,0,40,4,1,39
,0,-0.344538936,-0.012513563,1,0,0,targImage,,,,,,,2.111,-0.375,c,mm,001,2021-03-25_17h42.33.874,choiceRTT,3.1.3,60,1,0,40,20,1,39
,0,-0.381992255,-0.003589319,1,0,0,targImage,,,,,,,1.6666,-0.375,c,mm,001,2021-03-25_17h42.33.874,choiceRTT,3.1.3,60,1,0,40,12,1,39
,0,-0.088563594,0.000677377,1,0,0,targImage,,,,,,,1.2222,-0.125,v,mm,001,2021-03-25_17h42.33.874,choiceRTT,3.1.3,60,1,0,40,5,1,39
,0,0.427943138,-0.007195706,1,0,0,targImage,,,,,,,2.3332,0.375,n,mm,001,2021-03-25_17h42.33.874,choiceRTT,3.1.3,60,1,0,40,27,1,39
,0,0.157488562,-0.007782887,1,0,0,targImage,,,,,,,1.8888,0.125,b,mm,001,2021-03-25_17h42.33.874,choiceRTT,3.1.3,60,1,0,40,18,1,39
,0,-0.104108909,0.006985361,1,0,0,targImage,,,,,,,2.7776,-0.125,v,mm,001,2021-03-25_17h42.33.874,choiceRTT,3.1.3,60,1,0,40,33,1,39
,0,0.138151607,0.004956563,1,0,0,targImage,,,,,,,2.5554,0.125,b,mm,001,2021-03-25_17h42.33.874,choiceRTT,3.1.3,60,1,0,40,30,1,39
,0,-0.08445898,0.00196714,1,0,0,targImage,,,,,,,1.8888,-0.125,v,mm,001,2021-03-25_17h42.33.874,choiceRTT,3.1.3,60,1,0,40,17,1,39
,0,0.372147172,-0.003275158,1,0,0,targImage,,,,,,,2.9998,0.375,n,mm,001,2021-03-25_17h42.33.874,choiceRTT,3.1.3,60,1,0,40,39,1,39
