response.keys,response.corr,mouseResp.x,mouseResp.y,mouseResp.leftButton,mouseResp.midButton,mouseResp.rightButton,mouseResp.clicked_name,practiceTrials.thisRepN,practiceTrials.thisTrialN,practiceTrials.thisN,practiceTrials.thisIndex,practiceTrials.ran,practiceTrials.order,isi,xPos,corrAns,participant,session,date,expName,psychopyVersion,frameRate,mainTrials.thisRepN,mainTrials.thisTrialN,mainTrials.thisN,mainTrials.thisIndex,mainTrials.ran,mainTrials.order
,0,0.420370409,-0.025925942,1,0,0,targImage,1,0,8,7,1,7,1,0.375,n,nh,001,2021-11-17_10h09.25.094,choiceRTT,3.1.3,60,,,,,,
,0,0.091666696,-0.011111126,1,0,0,targImage,1,0,8,6,1,7,1,0.125,b,nh,001,2021-11-17_10h09.25.094,choiceRTT,3.1.3,60,,,,,,
,0,-0.312962946,0.005555541,1,0,0,targImage,1,0,8,0,1,7,1,-0.375,c,nh,001,2021-11-17_10h09.25.094,choiceRTT,3.1.3,60,,,,,,
,0,-0.349999984,0.004629615,1,0,0,targImage,1,0,8,4,1,7,1,-0.375,c,nh,001,2021-11-17_10h09.25.094,choiceRTT,3.1.3,60,,,,,,
,0,-0.187962942,0.007407393,1,0,0,targImage,1,0,8,5,1,7,1,-0.125,v,nh,001,2021-11-17_10h09.25.094,choiceRTT,3.1.3,60,,,,,,
,0,0.033333361,0.0148148,1,0,0,targImage,1,0,8,2,1,7,1,0.125,b,nh,001,2021-11-17_10h09.25.094,choiceRTT,3.1.3,60,,,,,,
,0,-0.110185162,0.004629615,1,0,0,targImage,1,0,8,1,1,7,1,-0.125,v,nh,001,2021-11-17_10h09.25.094,choiceRTT,3.1.3,60,,,,,,
,0,0.382407445,0.018518504,1,0,0,targImage,1,0,8,3,1,7,1,0.375,n,nh,001,2021-11-17_10h09.25.094,choiceRTT,3.1.3,60,,,,,,
,0,0.097222252,-0.020370386,1,0,0,targImage,,,,,,,2.5554,0.125,b,nh,001,2021-11-17_10h09.25.094,choiceRTT,3.1.3,60,1,0,40,30,1,39
,0,-0.092592512,-0.017592608,1,0,0,targImage,,,,,,,2.3332,-0.125,v,nh,001,2021-11-17_10h09.25.094,choiceRTT,3.1.3,60,1,0,40,25,1,39
,0,-0.092592512,-0.017592608,1,0,0,targImage,,,,,,,2.111,-0.125,v,nh,001,2021-11-17_10h09.25.094,choiceRTT,3.1.3,60,1,0,40,21,1,39
,0,0.353703741,0.003703689,1,0,0,targImage,,,,,,,1.6666,0.375,n,nh,001,2021-11-17_10h09.25.094,choiceRTT,3.1.3,60,1,0,40,15,1,39
,0,0.412037076,-0.0101852,1,0,0,targImage,,,,,,,2.9998,0.375,n,nh,001,2021-11-17_10h09.25.094,choiceRTT,3.1.3,60,1,0,40,39,1,39
,0,-0.348148132,-0.002777793,1,0,0,targImage,,,,,,,2.111,-0.375,c,nh,001,2021-11-17_10h09.25.094,choiceRTT,3.1.3,60,1,0,40,20,1,39
,0,0.092592622,0.049074032,1,0,0,targImage,,,,,,,1.8888,0.125,b,nh,001,2021-11-17_10h09.25.094,choiceRTT,3.1.3,60,1,0,40,18,1,39
,0,0.092592622,0.049074032,1,0,0,targImage,,,,,,,2.111,0.125,b,nh,001,2021-11-17_10h09.25.094,choiceRTT,3.1.3,60,1,0,40,22,1,39
,0,-0.336111095,0.018518504,1,0,0,targImage,,,,,,,1,-0.375,c,nh,001,2021-11-17_10h09.25.094,choiceRTT,3.1.3,60,1,0,40,0,1,39
,0,-0.158333312,0.012962948,1,0,0,targImage,,,,,,,2.7776,-0.125,v,nh,001,2021-11-17_10h09.25.094,choiceRTT,3.1.3,60,1,0,40,33,1,39
,0,0.312962999,0.015740726,1,0,0,targImage,,,,,,,2.3332,0.375,n,nh,001,2021-11-17_10h09.25.094,choiceRTT,3.1.3,60,1,0,40,27,1,39
,0,-0.062962938,-0.000925941,1,0,0,targImage,,,,,,,1.2222,-0.125,v,nh,001,2021-11-17_10h09.25.094,choiceRTT,3.1.3,60,1,0,40,5,1,39
,0,-0.320370353,-0.015740756,1,0,0,targImage,,,,,,,1.2222,-0.375,c,nh,001,2021-11-17_10h09.25.094,choiceRTT,3.1.3,60,1,0,40,4,1,39
,0,0.379629667,0.035185143,1,0,0,targImage,,,,,,,2.5554,0.375,n,nh,001,2021-11-17_10h09.25.094,choiceRTT,3.1.3,60,1,0,40,31,1,39
,0,-0.437962921,0.0148148,1,0,0,targImage,,,,,,,2.9998,-0.375,c,nh,001,2021-11-17_10h09.25.094,choiceRTT,3.1.3,60,1,0,40,36,1,39
,0,-0.146296274,-0.002777793,1,0,0,targImage,,,,,,,1.4444,-0.125,v,nh,001,2021-11-17_10h09.25.094,choiceRTT,3.1.3,60,1,0,40,9,1,39
,0,0.112962993,0.025925912,1,0,0,targImage,,,,,,,1,0.125,b,nh,001,2021-11-17_10h09.25.094,choiceRTT,3.1.3,60,1,0,40,2,1,39
,0,-0.415740698,-0.0101852,1,0,0,targImage,,,,,,,1.8888,-0.375,c,nh,001,2021-11-17_10h09.25.094,choiceRTT,3.1.3,60,1,0,40,16,1,39
,0,0.060185213,0.057407366,1,0,0,targImage,,,,,,,1.6666,0.125,b,nh,001,2021-11-17_10h09.25.094,choiceRTT,3.1.3,60,1,0,40,14,1,39
,0,-0.084259179,0.025925912,1,0,0,targImage,,,,,,,1.8888,-0.125,v,nh,001,2021-11-17_10h09.25.094,choiceRTT,3.1.3,60,1,0,40,17,1,39
,0,-0.084259179,0.025925912,1,0,0,targImage,,,,,,,1,-0.125,v,nh,001,2021-11-17_10h09.25.094,choiceRTT,3.1.3,60,1,0,40,1,1,39
,0,-0.084259179,0.025925912,1,0,0,targImage,,,,,,,2.5554,-0.125,v,nh,001,2021-11-17_10h09.25.094,choiceRTT,3.1.3,60,1,0,40,29,1,39
,0,0.115740771,0.001851837,1,0,0,targImage,,,,,,,1.4444,0.125,b,nh,001,2021-11-17_10h09.25.094,choiceRTT,3.1.3,60,1,0,40,10,1,39
,0,0.32870374,0.004629615,1,0,0,targImage,,,,,,,1.8888,0.375,n,nh,001,2021-11-17_10h09.25.094,choiceRTT,3.1.3,60,1,0,40,19,1,39
,0,-0.066666642,-0.026851868,1,0,0,targImage,,,,,,,2.9998,-0.125,v,nh,001,2021-11-17_10h09.25.094,choiceRTT,3.1.3,60,1,0,40,37,1,39
,0,0.371296334,-0.011111126,1,0,0,targImage,,,,,,,1.4444,0.375,n,nh,001,2021-11-17_10h09.25.094,choiceRTT,3.1.3,60,1,0,40,11,1,39
,0,-0.288888871,-0.021296312,1,0,0,targImage,,,,,,,1.4444,-0.375,c,nh,001,2021-11-17_10h09.25.094,choiceRTT,3.1.3,60,1,0,40,8,1,39
,0,0.394444483,0.013888874,1,0,0,targImage,,,,,,,1,0.375,n,nh,001,2021-11-17_10h09.25.094,choiceRTT,3.1.3,60,1,0,40,3,1,39
,0,-0.367592577,-0.000925941,1,0,0,targImage,,,,,,,2.7776,-0.375,c,nh,001,2021-11-17_10h09.25.094,choiceRTT,3.1.3,60,1,0,40,32,1,39
,0,0.342592629,0.012037022,1,0,0,targImage,,,,,,,2.111,0.375,n,nh,001,2021-11-17_10h09.25.094,choiceRTT,3.1.3,60,1,0,40,23,1,39
,0,0.342592629,0.012037022,1,0,0,targImage,,,,,,,1.2222,0.375,n,nh,001,2021-11-17_10h09.25.094,choiceRTT,3.1.3,60,1,0,40,7,1,39
,0,-0.146296274,-0.01944446,1,0,0,targImage,,,,,,,1.6666,-0.125,v,nh,001,2021-11-17_10h09.25.094,choiceRTT,3.1.3,60,1,0,40,13,1,39
,0,0.142592623,-0.042592609,1,0,0,targImage,,,,,,,1.2222,0.125,b,nh,001,2021-11-17_10h09.25.094,choiceRTT,3.1.3,60,1,0,40,6,1,39
,0,0.142592623,-0.042592609,1,0,0,targImage,,,,,,,2.3332,0.125,b,nh,001,2021-11-17_10h09.25.094,choiceRTT,3.1.3,60,1,0,40,26,1,39
,0,-0.406481467,-0.054629646,1,0,0,targImage,,,,,,,1.6666,-0.375,c,nh,001,2021-11-17_10h09.25.094,choiceRTT,3.1.3,60,1,0,40,12,1,39
,0,0.16388892,-0.002777793,1,0,0,targImage,,,,,,,2.7776,0.125,b,nh,001,2021-11-17_10h09.25.094,choiceRTT,3.1.3,60,1,0,40,34,1,39
,0,0.16388892,-0.002777793,1,0,0,targImage,,,,,,,2.9998,0.125,b,nh,001,2021-11-17_10h09.25.094,choiceRTT,3.1.3,60,1,0,40,38,1,39
,0,0.394444483,0.009259245,1,0,0,targImage,,,,,,,2.7776,0.375,n,nh,001,2021-11-17_10h09.25.094,choiceRTT,3.1.3,60,1,0,40,35,1,39
,0,-0.401851837,-0.021296312,1,0,0,targImage,,,,,,,2.5554,-0.375,c,nh,001,2021-11-17_10h09.25.094,choiceRTT,3.1.3,60,1,0,40,28,1,39
,0,-0.401851837,-0.021296312,1,0,0,targImage,,,,,,,2.3332,-0.375,c,nh,001,2021-11-17_10h09.25.094,choiceRTT,3.1.3,60,1,0,40,24,1,39
