response.keys,response.corr,mouseResp.x,mouseResp.y,mouseResp.leftButton,mouseResp.midButton,mouseResp.rightButton,mouseResp.clicked_name,practiceTrials.thisRepN,practiceTrials.thisTrialN,practiceTrials.thisN,practiceTrials.thisIndex,practiceTrials.ran,practiceTrials.order,isi,xPos,corrAns,participant,session,date,expName,psychopyVersion,frameRate,mainTrials.thisRepN,mainTrials.thisTrialN,mainTrials.thisN,mainTrials.thisIndex,mainTrials.ran,mainTrials.order
,0,0.118055556,-0.033333333,1,0,0,targImage,1,0,8,2,1,7,1,0.125,b,Ntn,001,2020-06-07_01h58.01.241,choiceRTT,3.1.3,60,,,,,,
,0,-0.381018519,-0.012962963,1,0,0,targImage,1,0,8,0,1,7,1,-0.375,c,Ntn,001,2020-06-07_01h58.01.241,choiceRTT,3.1.3,60,,,,,,
,0,0.110648148,-0.032407407,1,0,0,targImage,1,0,8,6,1,7,1,0.125,b,Ntn,001,2020-06-07_01h58.01.241,choiceRTT,3.1.3,60,,,,,,
,0,-0.325462963,-0.032407407,1,0,0,targImage,1,0,8,4,1,7,1,-0.375,c,Ntn,001,2020-06-07_01h58.01.241,choiceRTT,3.1.3,60,,,,,,
,0,-0.081018519,-0.014814815,1,0,0,targImage,1,0,8,1,1,7,1,-0.125,v,Ntn,001,2020-06-07_01h58.01.241,choiceRTT,3.1.3,60,,,,,,
,0,-0.10787037,-0.025,1,0,0,targImage,1,0,8,5,1,7,1,-0.125,v,Ntn,001,2020-06-07_01h58.01.241,choiceRTT,3.1.3,60,,,,,,
,0,0.39212963,-0.019444444,1,0,0,targImage,1,0,8,7,1,7,1,0.375,n,Ntn,001,2020-06-07_01h58.01.241,choiceRTT,3.1.3,60,,,,,,
,0,0.408796296,-0.000925926,1,0,0,targImage,1,0,8,3,1,7,1,0.375,n,Ntn,001,2020-06-07_01h58.01.241,choiceRTT,3.1.3,60,,,,,,
,0,0.060648148,-0.031481481,1,0,0,targImage,,,,,,,2.5554,0.125,b,Ntn,001,2020-06-07_01h58.01.241,choiceRTT,3.1.3,60,1,0,40,30,1,39
,0,-0.390277778,-0.047222222,1,0,0,targImage,,,,,,,1.4444,-0.375,c,Ntn,001,2020-06-07_01h58.01.241,choiceRTT,3.1.3,60,1,0,40,8,1,39
,0,-0.340277778,-0.037962963,1,0,0,targImage,,,,,,,1,-0.375,c,Ntn,001,2020-06-07_01h58.01.241,choiceRTT,3.1.3,60,1,0,40,0,1,39
,0,-0.152314815,-0.022222222,1,0,0,targImage,,,,,,,1.4444,-0.125,v,Ntn,001,2020-06-07_01h58.01.241,choiceRTT,3.1.3,60,1,0,40,9,1,39
,0,-0.152314815,-0.022222222,1,0,0,targImage,,,,,,,2.9998,-0.125,v,Ntn,001,2020-06-07_01h58.01.241,choiceRTT,3.1.3,60,1,0,40,37,1,39
,0,-0.151388889,-0.022222222,1,0,0,targImage,,,,,,,2.3332,-0.125,v,Ntn,001,2020-06-07_01h58.01.241,choiceRTT,3.1.3,60,1,0,40,25,1,39
,0,0.153240741,-0.013888889,1,0,0,targImage,,,,,,,1.4444,0.125,b,Ntn,001,2020-06-07_01h58.01.241,choiceRTT,3.1.3,60,1,0,40,10,1,39
,0,-0.36712963,-0.042592593,1,0,0,targImage,,,,,,,1.2222,-0.375,c,Ntn,001,2020-06-07_01h58.01.241,choiceRTT,3.1.3,60,1,0,40,4,1,39
,0,0.118055556,-0.025,1,0,0,targImage,,,,,,,2.111,0.125,b,Ntn,001,2020-06-07_01h58.01.241,choiceRTT,3.1.3,60,1,0,40,22,1,39
,0,0.345833333,-0.013888889,1,0,0,targImage,,,,,,,1,0.375,n,Ntn,001,2020-06-07_01h58.01.241,choiceRTT,3.1.3,60,1,0,40,3,1,39
,0,0.399537037,-0.022222222,1,0,0,targImage,,,,,,,2.9998,0.375,n,Ntn,001,2020-06-07_01h58.01.241,choiceRTT,3.1.3,60,1,0,40,39,1,39
,0,-0.399537037,-0.011111111,1,0,0,targImage,,,,,,,2.111,-0.375,c,Ntn,001,2020-06-07_01h58.01.241,choiceRTT,3.1.3,60,1,0,40,20,1,39
,0,0.129166667,0.002777778,1,0,0,targImage,,,,,,,1,0.125,b,Ntn,001,2020-06-07_01h58.01.241,choiceRTT,3.1.3,60,1,0,40,2,1,39
,0,0.306018519,0.00462963,1,0,0,targImage,,,,,,,1.8888,0.375,n,Ntn,001,2020-06-07_01h58.01.241,choiceRTT,3.1.3,60,1,0,40,19,1,39
,0,0.411574074,-0.000925926,1,0,0,targImage,,,,,,,1.6666,0.375,n,Ntn,001,2020-06-07_01h58.01.241,choiceRTT,3.1.3,60,1,0,40,15,1,39
,0,-0.44212963,-0.011111111,1,0,0,targImage,,,,,,,2.9998,-0.375,c,Ntn,001,2020-06-07_01h58.01.241,choiceRTT,3.1.3,60,1,0,40,36,1,39
,0,-0.089351852,-0.003703704,1,0,0,targImage,,,,,,,1,-0.125,v,Ntn,001,2020-06-07_01h58.01.241,choiceRTT,3.1.3,60,1,0,40,1,1,39
,0,-0.089351852,-0.003703704,1,0,0,targImage,,,,,,,1.6666,-0.125,v,Ntn,001,2020-06-07_01h58.01.241,choiceRTT,3.1.3,60,1,0,40,13,1,39
,0,0.383796296,-0.000925926,1,0,0,targImage,,,,,,,2.7776,0.375,n,Ntn,001,2020-06-07_01h58.01.241,choiceRTT,3.1.3,60,1,0,40,35,1,39
,0,0.383796296,-0.000925926,1,0,0,targImage,,,,,,,2.3332,0.375,n,Ntn,001,2020-06-07_01h58.01.241,choiceRTT,3.1.3,60,1,0,40,27,1,39
,0,0.102314815,-0.001851852,1,0,0,targImage,,,,,,,1.6666,0.125,b,Ntn,001,2020-06-07_01h58.01.241,choiceRTT,3.1.3,60,1,0,40,14,1,39
,0,0.286574074,0.003703704,1,0,0,targImage,,,,,,,1.2222,0.375,n,Ntn,001,2020-06-07_01h58.01.241,choiceRTT,3.1.3,60,1,0,40,7,1,39
,0,-0.293981481,-0.006481481,1,0,0,targImage,,,,,,,1.8888,-0.375,c,Ntn,001,2020-06-07_01h58.01.241,choiceRTT,3.1.3,60,1,0,40,16,1,39
,0,-0.224537037,0.001851852,1,0,0,targImage,,,,,,,2.111,-0.125,v,Ntn,001,2020-06-07_01h58.01.241,choiceRTT,3.1.3,60,1,0,40,21,1,39
,0,-0.309722222,-0.000925926,1,0,0,targImage,,,,,,,2.7776,-0.375,c,Ntn,001,2020-06-07_01h58.01.241,choiceRTT,3.1.3,60,1,0,40,32,1,39
,0,-0.315277778,-0.015740741,1,0,0,targImage,,,,,,,1.6666,-0.375,c,Ntn,001,2020-06-07_01h58.01.241,choiceRTT,3.1.3,60,1,0,40,12,1,39
,0,0.115277778,-0.009259259,1,0,0,targImage,,,,,,,2.7776,0.125,b,Ntn,001,2020-06-07_01h58.01.241,choiceRTT,3.1.3,60,1,0,40,34,1,39
,0,-0.316203704,-0.012037037,1,0,0,targImage,,,,,,,2.3332,-0.375,c,Ntn,001,2020-06-07_01h58.01.241,choiceRTT,3.1.3,60,1,0,40,24,1,39
,0,-0.149537037,-0.010185185,1,0,0,targImage,,,,,,,1.8888,-0.125,v,Ntn,001,2020-06-07_01h58.01.241,choiceRTT,3.1.3,60,1,0,40,17,1,39
,0,0.429166667,-0.008333333,1,0,0,targImage,,,,,,,2.5554,0.375,n,Ntn,001,2020-06-07_01h58.01.241,choiceRTT,3.1.3,60,1,0,40,31,1,39
,0,0.102314815,-0.056481481,1,0,0,targImage,,,,,,,2.3332,0.125,b,Ntn,001,2020-06-07_01h58.01.241,choiceRTT,3.1.3,60,1,0,40,26,1,39
,0,0.102314815,-0.056481481,1,0,0,targImage,,,,,,,1.2222,0.125,b,Ntn,001,2020-06-07_01h58.01.241,choiceRTT,3.1.3,60,1,0,40,6,1,39
,0,0.102314815,-0.056481481,1,0,0,targImage,,,,,,,1.8888,0.125,b,Ntn,001,2020-06-07_01h58.01.241,choiceRTT,3.1.3,60,1,0,40,18,1,39
,0,-0.158796296,-0.065740741,1,0,0,targImage,,,,,,,1.2222,-0.125,v,Ntn,001,2020-06-07_01h58.01.241,choiceRTT,3.1.3,60,1,0,40,5,1,39
,0,0.396759259,-0.059259259,1,0,0,targImage,,,,,,,1.4444,0.375,n,Ntn,001,2020-06-07_01h58.01.241,choiceRTT,3.1.3,60,1,0,40,11,1,39
,0,-0.094907407,-0.065740741,1,0,0,targImage,,,,,,,2.7776,-0.125,v,Ntn,001,2020-06-07_01h58.01.241,choiceRTT,3.1.3,60,1,0,40,33,1,39
,0,0.185648148,-0.040740741,1,0,0,targImage,,,,,,,2.9998,0.125,b,Ntn,001,2020-06-07_01h58.01.241,choiceRTT,3.1.3,60,1,0,40,38,1,39
,0,-0.043981481,-0.051851852,1,0,0,targImage,,,,,,,2.5554,-0.125,v,Ntn,001,2020-06-07_01h58.01.241,choiceRTT,3.1.3,60,1,0,40,29,1,39
,0,0.29212963,-0.039814815,1,0,0,targImage,,,,,,,2.111,0.375,n,Ntn,001,2020-06-07_01h58.01.241,choiceRTT,3.1.3,60,1,0,40,23,1,39
,0,-0.285648148,-0.07962963,1,0,0,targImage,,,,,,,2.5554,-0.375,c,Ntn,001,2020-06-07_01h58.01.241,choiceRTT,3.1.3,60,1,0,40,28,1,39
