keyResp.keys,keyResp.corr,keyResp.rt,mouseResp.x,mouseResp.y,mouseResp.leftButton,mouseResp.midButton,mouseResp.rightButton,mouseResp.time,mouseResp.clicked_name,trialRespTimes,moveOnKeys.keys,moveOnKeys.rt,PracticeLoop.thisRepN,PracticeLoop.thisTrialN,PracticeLoop.thisN,PracticeLoop.thisIndex,PracticeLoop.ran,onsetTime,thisImage,participant,session,date,expName,psychopyVersion,OS,frameRate,key_resp.keys,key_resp.rt,mouse.x,mouse.y,mouse.leftButton,mouse.midButton,mouse.rightButton,ExptLoop.thisRepN,ExptLoop.thisTrialN,ExptLoop.thisN,ExptLoop.thisIndex,ExptLoop.ran
v,1,3.393,,,,,,,,1.893,space,6.272,0,0,0,2,1,1.5,images/target_square.jpg,p,001,2022-12-19_08h34.48.821,choiceRTT,2021.2.3,MacIntel,58.82352941,,,,,,,,,,,,
c,1,3.522,,,,,,,,2.022,space,3.07,0,1,1,6,1,1.5,images/target_cross.jpg,p,001,2022-12-19_08h34.48.821,choiceRTT,2021.2.3,MacIntel,58.82352941,,,,,,,,,,,,
b,1,2.616,,,,,,,,1.116,space,2.09,0,2,2,4,1,1.5,images/target_plus.jpg,p,001,2022-12-19_08h34.48.821,choiceRTT,2021.2.3,MacIntel,58.82352941,,,,,,,,,,,,
v,1,2.031,,,,,,,,0.931,space,2.695,0,3,3,5,1,1.1,images/target_square.jpg,p,001,2022-12-19_08h34.48.821,choiceRTT,2021.2.3,MacIntel,58.82352941,,,,,,,,,,,,
b,1,1.906,,,,,,,,0.806,space,1.376,0,4,4,7,1,1.1,images/target_plus.jpg,p,001,2022-12-19_08h34.48.821,choiceRTT,2021.2.3,MacIntel,58.82352941,,,,,,,,,,,,
c,1,2.594,,,,,,,,1.494,space,1.901,0,5,5,0,1,1.1,images/target_cross.jpg,p,001,2022-12-19_08h34.48.821,choiceRTT,2021.2.3,MacIntel,58.82352941,,,,,,,,,,,,
c,1,5.455,,,,,,,,4.155,space,1.51,0,6,6,3,1,1.3,images/target_cross.jpg,p,001,2022-12-19_08h34.48.821,choiceRTT,2021.2.3,MacIntel,58.82352941,,,,,,,,,,,,
b,1,2.186,,,,,,,,0.886,space,1.932,0,7,7,1,1,1.3,images/target_plus.jpg,p,001,2022-12-19_08h34.48.821,choiceRTT,2021.2.3,MacIntel,58.82352941,,,,,,,,,,,,
v,1,2.409,,,,,,,,1.109,space,1.586,0,8,8,8,1,1.3,images/target_square.jpg,p,001,2022-12-19_08h34.48.821,choiceRTT,2021.2.3,MacIntel,58.82352941,,,,,,,,,,,,
b,1,2.564,,,,,,,,1.064,,,,,,,,1.5,images/target_plus.jpg,p,001,2022-12-19_08h34.48.821,choiceRTT,2021.2.3,MacIntel,58.82352941,space,6.482,-0.11625,-0.36625,0,0,0,0,0,0,4,1
v,1,2.737,,,,,,,,1.437,,,,,,,,1.3,images/target_square.jpg,p,001,2022-12-19_08h34.48.821,choiceRTT,2021.2.3,MacIntel,58.82352941,,,,,,,,0,1,1,8,1
c,1,1.874,,,,,,,,0.774,,,,,,,,1.1,images/target_cross.jpg,p,001,2022-12-19_08h34.48.821,choiceRTT,2021.2.3,MacIntel,58.82352941,,,,,,,,0,2,2,0,1
b,1,2.201,,,,,,,,1.101,,,,,,,,1.1,images/target_plus.jpg,p,001,2022-12-19_08h34.48.821,choiceRTT,2021.2.3,MacIntel,58.82352941,,,,,,,,0,3,3,7,1
v,1,2.131,,,,,,,,1.031,,,,,,,,1.1,images/target_square.jpg,p,001,2022-12-19_08h34.48.821,choiceRTT,2021.2.3,MacIntel,58.82352941,,,,,,,,0,4,4,5,1
v,1,2.199,,,,,,,,0.699,,,,,,,,1.5,images/target_square.jpg,p,001,2022-12-19_08h34.48.821,choiceRTT,2021.2.3,MacIntel,58.82352941,,,,,,,,0,5,5,2,1
c,1,2.446,,,,,,,,0.946,,,,,,,,1.5,images/target_cross.jpg,p,001,2022-12-19_08h34.48.821,choiceRTT,2021.2.3,MacIntel,58.82352941,,,,,,,,0,6,6,6,1
b,1,1.982,,,,,,,,0.682,,,,,,,,1.3,images/target_plus.jpg,p,001,2022-12-19_08h34.48.821,choiceRTT,2021.2.3,MacIntel,58.82352941,,,,,,,,0,7,7,1,1
c,1,2.216,,,,,,,,0.916,,,,,,,,1.3,images/target_cross.jpg,p,001,2022-12-19_08h34.48.821,choiceRTT,2021.2.3,MacIntel,58.82352941,,,,,,,,0,8,8,3,1
b,1,1.968,,,,,,,,0.668,,,,,,,,1.3,images/target_plus.jpg,p,001,2022-12-19_08h34.48.821,choiceRTT,2021.2.3,MacIntel,58.82352941,,,,,,,,1,0,9,1,1
c,1,2.643,,,,,,,,1.143,,,,,,,,1.5,images/target_cross.jpg,p,001,2022-12-19_08h34.48.821,choiceRTT,2021.2.3,MacIntel,58.82352941,,,,,,,,1,1,10,6,1
b,1,2.837,,,,,,,,1.337,,,,,,,,1.5,images/target_plus.jpg,p,001,2022-12-19_08h34.48.821,choiceRTT,2021.2.3,MacIntel,58.82352941,,,,,,,,1,2,11,4,1
b,1,2.293,,,,,,,,1.193,,,,,,,,1.1,images/target_plus.jpg,p,001,2022-12-19_08h34.48.821,choiceRTT,2021.2.3,MacIntel,58.82352941,,,,,,,,1,3,12,7,1
v,1,2.099,,,,,,,,0.599,,,,,,,,1.5,images/target_square.jpg,p,001,2022-12-19_08h34.48.821,choiceRTT,2021.2.3,MacIntel,58.82352941,,,,,,,,1,4,13,2,1
v,1,2.85,,,,,,,,1.55,,,,,,,,1.3,images/target_square.jpg,p,001,2022-12-19_08h34.48.821,choiceRTT,2021.2.3,MacIntel,58.82352941,,,,,,,,1,5,14,8,1
v,1,1.867,,,,,,,,0.767,,,,,,,,1.1,images/target_square.jpg,p,001,2022-12-19_08h34.48.821,choiceRTT,2021.2.3,MacIntel,58.82352941,,,,,,,,1,6,15,5,1
c,1,2.172,,,,,,,,1.072,,,,,,,,1.1,images/target_cross.jpg,p,001,2022-12-19_08h34.48.821,choiceRTT,2021.2.3,MacIntel,58.82352941,,,,,,,,1,7,16,0,1
c,1,2.202,,,,,,,,0.902,,,,,,,,1.3,images/target_cross.jpg,p,001,2022-12-19_08h34.48.821,choiceRTT,2021.2.3,MacIntel,58.82352941,,,,,,,,1,8,17,3,1
