response.keys,response.corr,mouseResp.x,mouseResp.y,mouseResp.leftButton,mouseResp.midButton,mouseResp.rightButton,mouseResp.clicked_name,practiceTrials.thisRepN,practiceTrials.thisTrialN,practiceTrials.thisN,practiceTrials.thisIndex,practiceTrials.ran,practiceTrials.order,isi,xPos,corrAns,participant,session,date,expName,psychopyVersion,frameRate,mainTrials.thisRepN,mainTrials.thisTrialN,mainTrials.thisN,mainTrials.thisIndex,mainTrials.ran,mainTrials.order
,0,0.371469727,0.008535156,1,0,0,targImage,1,0,8,7,1,7,1,0.375,n,paaa,001,2020-09-04_16h13.53.870,choiceRTT,3.1.3,60,,,,,,
,0,0.119541016,-0.001264648,1,0,0,targImage,1,0,8,6,1,7,1,0.125,b,paaa,001,2020-09-04_16h13.53.870,choiceRTT,3.1.3,60,,,,,,
,0,-0.126611328,0.011386719,1,0,0,targImage,1,0,8,5,1,7,1,-0.125,v,paaa,001,2020-09-04_16h13.53.870,choiceRTT,3.1.3,60,,,,,,
,0,-0.371088867,-0.003041992,1,0,0,targImage,1,0,8,0,1,7,1,-0.375,c,paaa,001,2020-09-04_16h13.53.870,choiceRTT,3.1.3,60,,,,,,
,0,-0.371088867,-0.003041992,1,0,0,targImage,1,0,8,4,1,7,1,-0.375,c,paaa,001,2020-09-04_16h13.53.870,choiceRTT,3.1.3,60,,,,,,
,0,0.383085937,0.028422852,1,0,0,targImage,1,0,8,3,1,7,1,0.375,n,paaa,001,2020-09-04_16h13.53.870,choiceRTT,3.1.3,60,,,,,,
,0,0.156396484,0.015854492,1,0,0,targImage,1,0,8,2,1,7,1,0.125,b,paaa,001,2020-09-04_16h13.53.870,choiceRTT,3.1.3,60,,,,,,
,0,-0.10984375,-0.021469727,1,0,0,targImage,1,0,8,1,1,7,1,-0.125,v,paaa,001,2020-09-04_16h13.53.870,choiceRTT,3.1.3,60,,,,,,
,0,0.176489258,0.013173828,1,0,0,targImage,,,,,,,1,0.125,b,paaa,001,2020-09-04_16h13.53.870,choiceRTT,3.1.3,60,1,0,40,2,1,39
,0,-0.091694336,-0.005180664,1,0,0,targImage,,,,,,,1.4444,-0.125,v,paaa,001,2020-09-04_16h13.53.870,choiceRTT,3.1.3,60,1,0,40,9,1,39
,0,-0.401206055,-0.023730469,1,0,0,targImage,,,,,,,2.5554,-0.375,c,paaa,001,2020-09-04_16h13.53.870,choiceRTT,3.1.3,60,1,0,40,28,1,39
,0,0.122446289,-0.013540039,1,0,0,targImage,,,,,,,1.2222,0.125,b,paaa,001,2020-09-04_16h13.53.870,choiceRTT,3.1.3,60,1,0,40,6,1,39
,0,-0.083974609,0.022026367,1,0,0,targImage,,,,,,,1.6666,-0.125,v,paaa,001,2020-09-04_16h13.53.870,choiceRTT,3.1.3,60,1,0,40,13,1,39
,0,0.319399414,0.006367187,1,0,0,targImage,,,,,,,2.5554,0.375,n,paaa,001,2020-09-04_16h13.53.870,choiceRTT,3.1.3,60,1,0,40,31,1,39
,0,0.139985352,0.006367187,1,0,0,targImage,,,,,,,1.8888,0.125,b,paaa,001,2020-09-04_16h13.53.870,choiceRTT,3.1.3,60,1,0,40,18,1,39
,0,-0.408095703,0.003720703,1,0,0,targImage,,,,,,,2.3332,-0.375,c,paaa,001,2020-09-04_16h13.53.870,choiceRTT,3.1.3,60,1,0,40,24,1,39
,0,-0.408095703,0.003720703,1,0,0,targImage,,,,,,,1.4444,-0.375,c,paaa,001,2020-09-04_16h13.53.870,choiceRTT,3.1.3,60,1,0,40,8,1,39
,0,0.337416992,0.017314453,1,0,0,targImage,,,,,,,2.3332,0.375,n,paaa,001,2020-09-04_16h13.53.870,choiceRTT,3.1.3,60,1,0,40,27,1,39
,0,0.337416992,0.017314453,1,0,0,targImage,,,,,,,1.2222,0.375,n,paaa,001,2020-09-04_16h13.53.870,choiceRTT,3.1.3,60,1,0,40,7,1,39
,0,-0.390668945,0.004331055,1,0,0,targImage,,,,,,,1.8888,-0.375,c,paaa,001,2020-09-04_16h13.53.870,choiceRTT,3.1.3,60,1,0,40,16,1,39
,0,0.095185547,-0.024155273,1,0,0,targImage,,,,,,,2.5554,0.125,b,paaa,001,2020-09-04_16h13.53.870,choiceRTT,3.1.3,60,1,0,40,30,1,39
,0,0.369775391,0.025283203,1,0,0,targImage,,,,,,,2.9998,0.375,n,paaa,001,2020-09-04_16h13.53.870,choiceRTT,3.1.3,60,1,0,40,39,1,39
,0,0.349433594,0.04184082,1,0,0,targImage,,,,,,,1.6666,0.375,n,paaa,001,2020-09-04_16h13.53.870,choiceRTT,3.1.3,60,1,0,40,15,1,39
,0,-0.3378125,-0.023071289,1,0,0,targImage,,,,,,,1.6666,-0.375,c,paaa,001,2020-09-04_16h13.53.870,choiceRTT,3.1.3,60,1,0,40,12,1,39
,0,0.15171875,0.013959961,1,0,0,targImage,,,,,,,1.4444,0.125,b,paaa,001,2020-09-04_16h13.53.870,choiceRTT,3.1.3,60,1,0,40,10,1,39
,0,0.088920898,0.006123047,1,0,0,targImage,,,,,,,2.9998,0.125,b,paaa,001,2020-09-04_16h13.53.870,choiceRTT,3.1.3,60,1,0,40,38,1,39
,0,-0.356972656,0.001269531,1,0,0,targImage,,,,,,,1,-0.375,c,paaa,001,2020-09-04_16h13.53.870,choiceRTT,3.1.3,60,1,0,40,0,1,39
,0,0.313500977,0.057231445,1,0,0,targImage,,,,,,,1,0.375,n,paaa,001,2020-09-04_16h13.53.870,choiceRTT,3.1.3,60,1,0,40,3,1,39
,0,-0.214033203,-0.005869141,1,0,0,targImage,,,,,,,2.7776,-0.125,v,paaa,001,2020-09-04_16h13.53.870,choiceRTT,3.1.3,60,1,0,40,33,1,39
,0,-0.33671875,-0.002568359,1,0,0,targImage,,,,,,,2.111,-0.375,c,paaa,001,2020-09-04_16h13.53.870,choiceRTT,3.1.3,60,1,0,40,20,1,39
,0,0.152827148,0.014008789,1,0,0,targImage,,,,,,,2.7776,0.125,b,paaa,001,2020-09-04_16h13.53.870,choiceRTT,3.1.3,60,1,0,40,34,1,39
,0,0.31097168,0.023222656,1,0,0,targImage,,,,,,,2.111,0.375,n,paaa,001,2020-09-04_16h13.53.870,choiceRTT,3.1.3,60,1,0,40,23,1,39
,0,-0.138808594,0.013300781,1,0,0,targImage,,,,,,,2.111,-0.125,v,paaa,001,2020-09-04_16h13.53.870,choiceRTT,3.1.3,60,1,0,40,21,1,39
,0,0.368647461,0.023598633,1,0,0,targImage,,,,,,,2.7776,0.375,n,paaa,001,2020-09-04_16h13.53.870,choiceRTT,3.1.3,60,1,0,40,35,1,39
,0,-0.080898438,0.014511719,1,0,0,targImage,,,,,,,2.9998,-0.125,v,paaa,001,2020-09-04_16h13.53.870,choiceRTT,3.1.3,60,1,0,40,37,1,39
,0,0.140922852,0.023808594,1,0,0,targImage,,,,,,,2.111,0.125,b,paaa,001,2020-09-04_16h13.53.870,choiceRTT,3.1.3,60,1,0,40,22,1,39
,0,0.137983398,0.002836914,1,0,0,targImage,,,,,,,2.3332,0.125,b,paaa,001,2020-09-04_16h13.53.870,choiceRTT,3.1.3,60,1,0,40,26,1,39
,0,-0.09484375,0.016049805,1,0,0,targImage,,,,,,,1,-0.125,v,paaa,001,2020-09-04_16h13.53.870,choiceRTT,3.1.3,60,1,0,40,1,1,39
,0,0.124658203,0.012949219,1,0,0,targImage,,,,,,,1.6666,0.125,b,paaa,001,2020-09-04_16h13.53.870,choiceRTT,3.1.3,60,1,0,40,14,1,39
,0,-0.338203125,0.003408203,1,0,0,targImage,,,,,,,1.2222,-0.375,c,paaa,001,2020-09-04_16h13.53.870,choiceRTT,3.1.3,60,1,0,40,4,1,39
,0,-0.114960937,-0.000629883,1,0,0,targImage,,,,,,,1.2222,-0.125,v,paaa,001,2020-09-04_16h13.53.870,choiceRTT,3.1.3,60,1,0,40,5,1,39
,0,-0.059023437,-0.006171875,1,0,0,targImage,,,,,,,1.8888,-0.125,v,paaa,001,2020-09-04_16h13.53.870,choiceRTT,3.1.3,60,1,0,40,17,1,39
,0,-0.064516602,0.004350586,1,0,0,targImage,,,,,,,2.5554,-0.125,v,paaa,001,2020-09-04_16h13.53.870,choiceRTT,3.1.3,60,1,0,40,29,1,39
,0,-0.320263672,-0.015024414,1,0,0,targImage,,,,,,,2.9998,-0.375,c,paaa,001,2020-09-04_16h13.53.870,choiceRTT,3.1.3,60,1,0,40,36,1,39
,0,-0.371572266,-0.015,1,0,0,targImage,,,,,,,2.7776,-0.375,c,paaa,001,2020-09-04_16h13.53.870,choiceRTT,3.1.3,60,1,0,40,32,1,39
,0,0.449047852,0.014233398,1,0,0,targImage,,,,,,,1.8888,0.375,n,paaa,001,2020-09-04_16h13.53.870,choiceRTT,3.1.3,60,1,0,40,19,1,39
,0,0.393984375,0.022998047,1,0,0,targImage,,,,,,,1.4444,0.375,n,paaa,001,2020-09-04_16h13.53.870,choiceRTT,3.1.3,60,1,0,40,11,1,39
,0,-0.12503418,0.001176758,1,0,0,targImage,,,,,,,2.3332,-0.125,v,paaa,001,2020-09-04_16h13.53.870,choiceRTT,3.1.3,60,1,0,40,25,1,39
