keyResp.keys,keyResp.corr,mouseResp.x,mouseResp.y,mouseResp.leftButton,mouseResp.midButton,mouseResp.rightButton,mouseResp.time,mouseResp.clicked_name,correctMouseResp,trialRespTimes,moveOnKeys.keys,moveOnKeys.rt,PracticeLoop.thisRepN,PracticeLoop.thisTrialN,PracticeLoop.thisN,PracticeLoop.thisIndex,PracticeLoop.ran,onsetTime,thisImage,participant,session,date,expName,psychopyVersion,OS,frameRate,key_resp.keys,mouse.x,mouse.y,mouse.leftButton,mouse.midButton,mouse.rightButton,ExptLoop.thisRepN,ExptLoop.thisTrialN,ExptLoop.thisN,ExptLoop.thisIndex,ExptLoop.ran
,0,-0.020833282,-0.256666718,1,0,0,6.9328,square_button,1,5.4328,space,5.7093,0,0,0,2,1,1.5,images/target_square.jpg,,001,2023-05-14_24h00.34.039,choiceRTT,2021.2.3,Win32,29.98141152,,,,,,,,,,,
,0,0.255,-0.256666718,1,0,0,3.9888,plus_button,1,2.4888,space,2.9397,0,1,1,4,1,1.5,images/target_plus.jpg,,001,2023-05-14_24h00.34.039,choiceRTT,2021.2.3,Win32,29.98141152,,,,,,,,,,,
,0,-0.023333282,-0.26,1,0,0,3.1544,square_button,1,1.8544,space,4.2943,0,2,2,8,1,1.3,images/target_square.jpg,,001,2023-05-14_24h00.34.039,choiceRTT,2021.2.3,Win32,29.98141152,,,,,,,,,,,
,0,-0.020833282,-0.26,1,0,0,2.6046,square_button,1,1.5046,space,6.5271,0,3,3,5,1,1.1,images/target_square.jpg,,001,2023-05-14_24h00.34.039,choiceRTT,2021.2.3,Win32,29.98141152,,,,,,,,,,,
,0,-0.020833282,-0.26,1,0,0,3.2377,square_button,0,2.1377,space,1.3755,0,4,4,0,1,1.1,images/target_cross.jpg,,001,2023-05-14_24h00.34.039,choiceRTT,2021.2.3,Win32,29.98141152,,,,,,,,,,,
,0,-0.215,-0.256666718,1,0,0,5.8872,cross_button,0,4.5872,space,3.1031,0,5,5,1,1,1.3,images/target_plus.jpg,,001,2023-05-14_24h00.34.039,choiceRTT,2021.2.3,Win32,29.98141152,,,,,,,,,,,
,0,-0.021666641,-0.245,1,0,0,4.6543,square_button,0,3.1543,space,1.6283,0,6,6,6,1,1.5,images/target_cross.jpg,,001,2023-05-14_24h00.34.039,choiceRTT,2021.2.3,Win32,29.98141152,,,,,,,,,,,
,0,0.169166718,-0.274166718,1,0,0,5.0889,plus_button,1,3.9889,space,1.4128,0,7,7,7,1,1.1,images/target_plus.jpg,,001,2023-05-14_24h00.34.039,choiceRTT,2021.2.3,Win32,29.98141152,,,,,,,,,,,
,0,0.06,-0.225,1,0,0,1.6383,square_button,0,0.3383,space,8.1131,0,8,8,3,1,1.3,images/target_cross.jpg,,001,2023-05-14_24h00.34.039,choiceRTT,2021.2.3,Win32,29.98141152,,,,,,,,,,,
,0,-0.253333321,-0.225833359,1,0,0,6.478,cross_button,1,4.978,,,,,,,,1.5,images/target_cross.jpg,,001,2023-05-14_24h00.34.039,choiceRTT,2021.2.3,Win32,29.98141152,,-0.019166641,-0.2175,1,0,0,0,0,0,6,1
,0,-0.253333321,-0.225833359,1,0,0,4.6371,cross_button,1,3.3371,,,,,,,,1.3,images/target_cross.jpg,,001,2023-05-14_24h00.34.039,choiceRTT,2021.2.3,Win32,29.98141152,,,,,,,0,1,1,3,1
,0,0.205833359,-0.250833359,1,0,0,3.7215,plus_button,1,2.2215,,,,,,,,1.5,images/target_plus.jpg,,001,2023-05-14_24h00.34.039,choiceRTT,2021.2.3,Win32,29.98141152,,,,,,,0,2,2,4,1
,0,0.026666718,-0.225833359,1,0,0,2.972,square_button,1,1.472,,,,,,,,1.5,images/target_square.jpg,,001,2023-05-14_24h00.34.039,choiceRTT,2021.2.3,Win32,29.98141152,,,,,,,0,3,3,2,1
,0,0.026666718,-0.225833359,1,0,0,2.0993,square_button,1,0.7993,,,,,,,,1.3,images/target_square.jpg,,001,2023-05-14_24h00.34.039,choiceRTT,2021.2.3,Win32,29.98141152,,,,,,,0,4,4,8,1
,0,0.026666718,-0.225833359,1,0,0,1.5982,square_button,0,0.4982,,,,,,,,1.1,images/target_cross.jpg,,001,2023-05-14_24h00.34.039,choiceRTT,2021.2.3,Win32,29.98141152,,,,,,,0,5,5,0,1
,0,0.026666718,-0.225833359,1,0,0,1.6155,square_button,0,0.5155,,,,,,,,1.1,images/target_plus.jpg,,001,2023-05-14_24h00.34.039,choiceRTT,2021.2.3,Win32,29.98141152,,,,,,,0,6,6,7,1
,0,0.026666718,-0.225833359,1,0,0,1.0825,square_button,0,-0.2175,,,,,,,,1.3,images/target_plus.jpg,,001,2023-05-14_24h00.34.039,choiceRTT,2021.2.3,Win32,29.98141152,,,,,,,0,7,7,1,1
,0,0.026666718,-0.225833359,1,0,0,1.7148,square_button,1,0.6148,,,,,,,,1.1,images/target_square.jpg,,001,2023-05-14_24h00.34.039,choiceRTT,2021.2.3,Win32,29.98141152,,,,,,,0,8,8,5,1
,0,0.026666718,-0.225833359,1,0,0,1.0656,square_button,1,-0.0344,,,,,,,,1.1,images/target_square.jpg,,001,2023-05-14_24h00.34.039,choiceRTT,2021.2.3,Win32,29.98141152,,,,,,,1,0,9,5,1
,0,0.026666718,-0.225833359,1,0,0,2.7668,square_button,1,1.4668,,,,,,,,1.3,images/target_square.jpg,,001,2023-05-14_24h00.34.039,choiceRTT,2021.2.3,Win32,29.98141152,,,,,,,1,1,10,8,1
,0,0.026666718,-0.225833359,1,0,0,1.4147,square_button,0,0.1147,,,,,,,,1.3,images/target_plus.jpg,,001,2023-05-14_24h00.34.039,choiceRTT,2021.2.3,Win32,29.98141152,,,,,,,1,2,11,1,1
,0,0.026666718,-0.225833359,1,0,0,1.215,square_button,0,0.115,,,,,,,,1.1,images/target_cross.jpg,,001,2023-05-14_24h00.34.039,choiceRTT,2021.2.3,Win32,29.98141152,,,,,,,1,3,12,0,1
,0,0.026666718,-0.225833359,1,0,0,1.7323,square_button,0,0.2323,,,,,,,,1.5,images/target_plus.jpg,,001,2023-05-14_24h00.34.039,choiceRTT,2021.2.3,Win32,29.98141152,,,,,,,1,4,13,4,1
,0,0.026666718,-0.225833359,1,0,0,2.0841,square_button,0,0.5841,,,,,,,,1.5,images/target_cross.jpg,,001,2023-05-14_24h00.34.039,choiceRTT,2021.2.3,Win32,29.98141152,,,,,,,1,5,14,6,1
,0,0.026666718,-0.225833359,1,0,0,2.4143,square_button,0,1.1143,,,,,,,,1.3,images/target_cross.jpg,,001,2023-05-14_24h00.34.039,choiceRTT,2021.2.3,Win32,29.98141152,,,,,,,1,6,15,3,1
,0,0.026666718,-0.225833359,1,0,0,2.9379,square_button,1,1.4379,,,,,,,,1.5,images/target_square.jpg,,001,2023-05-14_24h00.34.039,choiceRTT,2021.2.3,Win32,29.98141152,,,,,,,1,7,16,2,1
,0,0.026666718,-0.225833359,1,0,0,2.265,square_button,0,1.165,,,,,,,,1.1,images/target_plus.jpg,,001,2023-05-14_24h00.34.039,choiceRTT,2021.2.3,Win32,29.98141152,,,,,,,1,8,17,7,1
