response.keys,response.corr,mouseResp.x,mouseResp.y,mouseResp.leftButton,mouseResp.midButton,mouseResp.rightButton,mouseResp.clicked_name,practiceTrials.thisRepN,practiceTrials.thisTrialN,practiceTrials.thisN,practiceTrials.thisIndex,practiceTrials.ran,practiceTrials.order,isi,xPos,corrAns,participant,session,date,expName,psychopyVersion,frameRate,mainTrials.thisRepN,mainTrials.thisTrialN,mainTrials.thisN,mainTrials.thisIndex,mainTrials.ran,mainTrials.order
,0,-0.091666643,-0.056481498,1,0,0,targImage,1,0,8,5,1,7,1,-0.125,v,,001,2020-07-05_08h42.28.613,choiceRTT,3.1.3,60,,,,,,
,0,0.425000039,-0.004629645,1,0,0,targImage,1,0,8,3,1,7,1,0.375,n,,001,2020-07-05_08h42.28.613,choiceRTT,3.1.3,60,,,,,,
,0,-0.352777762,0.005555541,1,0,0,targImage,1,0,8,4,1,7,1,-0.375,c,,001,2020-07-05_08h42.28.613,choiceRTT,3.1.3,60,,,,,,
,0,0.088888918,0.001851837,1,0,0,targImage,1,0,8,6,1,7,1,0.125,b,,001,2020-07-05_08h42.28.613,choiceRTT,3.1.3,60,,,,,,
,0,-0.167592515,-0.026851868,1,0,0,targImage,1,0,8,1,1,7,1,-0.125,v,,001,2020-07-05_08h42.28.613,choiceRTT,3.1.3,60,,,,,,
,0,-0.374999985,-0.015740756,1,0,0,targImage,1,0,8,0,1,7,1,-0.375,c,,001,2020-07-05_08h42.28.613,choiceRTT,3.1.3,60,,,,,,
,0,0.353703741,-0.011111126,1,0,0,targImage,1,0,8,7,1,7,1,0.375,n,,001,2020-07-05_08h42.28.613,choiceRTT,3.1.3,60,,,,,,
,0,0.130555586,-0.018518534,1,0,0,targImage,1,0,8,2,1,7,1,0.125,b,,001,2020-07-05_08h42.28.613,choiceRTT,3.1.3,60,,,,,,
,0,0.412963002,0.032407365,1,0,0,targImage,,,,,,,2.7776,0.375,n,,001,2020-07-05_08h42.28.613,choiceRTT,3.1.3,60,1,0,40,35,1,39
,0,-0.349074058,-1.4912E-08,1,0,0,targImage,,,,,,,1.8888,-0.375,c,,001,2020-07-05_08h42.28.613,choiceRTT,3.1.3,60,1,0,40,16,1,39
,0,-0.059259178,-0.011111126,1,0,0,targImage,,,,,,,1.8888,-0.125,v,,001,2020-07-05_08h42.28.613,choiceRTT,3.1.3,60,1,0,40,17,1,39
,0,0.433333373,-0.008333348,1,0,0,targImage,,,,,,,2.3332,0.375,n,,001,2020-07-05_08h42.28.613,choiceRTT,3.1.3,60,1,0,40,27,1,39
,0,-0.344444428,-0.0101852,1,0,0,targImage,,,,,,,2.9998,-0.375,c,,001,2020-07-05_08h42.28.613,choiceRTT,3.1.3,60,1,0,40,36,1,39
,0,0.429629669,0.021296282,1,0,0,targImage,,,,,,,1.2222,0.375,n,,001,2020-07-05_08h42.28.613,choiceRTT,3.1.3,60,1,0,40,7,1,39
,0,0.152777809,0.000925911,1,0,0,targImage,,,,,,,2.9998,0.125,b,,001,2020-07-05_08h42.28.613,choiceRTT,3.1.3,60,1,0,40,38,1,39
,0,-0.125925847,-0.0101852,1,0,0,targImage,,,,,,,2.9998,-0.125,v,,001,2020-07-05_08h42.28.613,choiceRTT,3.1.3,60,1,0,40,37,1,39
,0,0.097222252,-0.012037052,1,0,0,targImage,,,,,,,1.4444,0.125,b,,001,2020-07-05_08h42.28.613,choiceRTT,3.1.3,60,1,0,40,10,1,39
,0,-0.192592572,-0.025000016,1,0,0,targImage,,,,,,,2.5554,-0.125,v,,001,2020-07-05_08h42.28.613,choiceRTT,3.1.3,60,1,0,40,29,1,39
,0,-0.192592572,-0.025925942,1,0,0,targImage,,,,,,,2.111,-0.125,v,,001,2020-07-05_08h42.28.613,choiceRTT,3.1.3,60,1,0,40,21,1,39
,0,-0.412962949,0.020370356,1,0,0,targImage,,,,,,,1.6666,-0.375,c,,001,2020-07-05_08h42.28.613,choiceRTT,3.1.3,60,1,0,40,12,1,39
,0,0.098148178,0.018518504,1,0,0,targImage,,,,,,,1.6666,0.125,b,,001,2020-07-05_08h42.28.613,choiceRTT,3.1.3,60,1,0,40,14,1,39
,0,-0.116666644,-0.01481483,1,0,0,targImage,,,,,,,1,-0.125,v,,001,2020-07-05_08h42.28.613,choiceRTT,3.1.3,60,1,0,40,1,1,39
,0,0.106481511,0.009259245,1,0,0,targImage,,,,,,,2.111,0.125,b,,001,2020-07-05_08h42.28.613,choiceRTT,3.1.3,60,1,0,40,22,1,39
,0,0.105555585,0.009259245,1,0,0,targImage,,,,,,,2.7776,0.125,b,,001,2020-07-05_08h42.28.613,choiceRTT,3.1.3,60,1,0,40,34,1,39
,0,-0.10925918,0.004629615,1,0,0,targImage,,,,,,,1.6666,-0.125,v,,001,2020-07-05_08h42.28.613,choiceRTT,3.1.3,60,1,0,40,13,1,39
,0,-0.338888872,-0.01481483,1,0,0,targImage,,,,,,,2.3332,-0.375,c,,001,2020-07-05_08h42.28.613,choiceRTT,3.1.3,60,1,0,40,24,1,39
,0,0.362037074,0.020370356,1,0,0,targImage,,,,,,,2.111,0.375,n,,001,2020-07-05_08h42.28.613,choiceRTT,3.1.3,60,1,0,40,23,1,39
,0,0.356481519,0.016666652,1,0,0,targImage,,,,,,,2.5554,0.375,n,,001,2020-07-05_08h42.28.613,choiceRTT,3.1.3,60,1,0,40,31,1,39
,0,0.136111142,0.033333319,1,0,0,targImage,,,,,,,2.3332,0.125,b,,001,2020-07-05_08h42.28.613,choiceRTT,3.1.3,60,1,0,40,26,1,39
,0,0.136111142,0.033333319,1,0,0,targImage,,,,,,,1.2222,0.125,b,,001,2020-07-05_08h42.28.613,choiceRTT,3.1.3,60,1,0,40,6,1,39
,0,0.439814854,0.021296282,1,0,0,targImage,,,,,,,1.8888,0.375,n,,001,2020-07-05_08h42.28.613,choiceRTT,3.1.3,60,1,0,40,19,1,39
,0,-0.3898148,0.020370356,1,0,0,targImage,,,,,,,2.5554,-0.375,c,,001,2020-07-05_08h42.28.613,choiceRTT,3.1.3,60,1,0,40,28,1,39
,0,0.089814844,0.012037022,1,0,0,targImage,,,,,,,2.5554,0.125,b,,001,2020-07-05_08h42.28.613,choiceRTT,3.1.3,60,1,0,40,30,1,39
,0,-0.121296273,-0.021296312,1,0,0,targImage,,,,,,,1.2222,-0.125,v,,001,2020-07-05_08h42.28.613,choiceRTT,3.1.3,60,1,0,40,5,1,39
,0,-0.295370353,-0.017592608,1,0,0,targImage,,,,,,,1.4444,-0.375,c,,001,2020-07-05_08h42.28.613,choiceRTT,3.1.3,60,1,0,40,8,1,39
,0,0.141666697,-0.003703719,1,0,0,targImage,,,,,,,1.8888,0.125,b,,001,2020-07-05_08h42.28.613,choiceRTT,3.1.3,60,1,0,40,18,1,39
,0,-0.453703691,-0.003703719,1,0,0,targImage,,,,,,,2.111,-0.375,c,,001,2020-07-05_08h42.28.613,choiceRTT,3.1.3,60,1,0,40,20,1,39
,0,0.137962994,-0.003703719,1,0,0,targImage,,,,,,,1,0.125,b,,001,2020-07-05_08h42.28.613,choiceRTT,3.1.3,60,1,0,40,2,1,39
,0,-0.07407405,-0.01944446,1,0,0,targImage,,,,,,,2.3332,-0.125,v,,001,2020-07-05_08h42.28.613,choiceRTT,3.1.3,60,1,0,40,25,1,39
,0,-0.058333309,-0.018518534,1,0,0,targImage,,,,,,,2.7776,-0.125,v,,001,2020-07-05_08h42.28.613,choiceRTT,3.1.3,60,1,0,40,33,1,39
,0,0.336111148,0.020370356,1,0,0,targImage,,,,,,,1.4444,0.375,n,,001,2020-07-05_08h42.28.613,choiceRTT,3.1.3,60,1,0,40,11,1,39
,0,-0.062036956,-0.012962978,1,0,0,targImage,,,,,,,1.4444,-0.125,v,,001,2020-07-05_08h42.28.613,choiceRTT,3.1.3,60,1,0,40,9,1,39
,0,0.340740777,0.001851837,1,0,0,targImage,,,,,,,2.9998,0.375,n,,001,2020-07-05_08h42.28.613,choiceRTT,3.1.3,60,1,0,40,39,1,39
,0,-0.337962947,-0.015740756,1,0,0,targImage,,,,,,,1,-0.375,c,,001,2020-07-05_08h42.28.613,choiceRTT,3.1.3,60,1,0,40,0,1,39
,0,-0.30277776,-0.020370386,1,0,0,targImage,,,,,,,2.7776,-0.375,c,,001,2020-07-05_08h42.28.613,choiceRTT,3.1.3,60,1,0,40,32,1,39
,0,-0.325925909,0.027777764,1,0,0,targImage,,,,,,,1.2222,-0.375,c,,001,2020-07-05_08h42.28.613,choiceRTT,3.1.3,60,1,0,40,4,1,39
,0,0.399074112,-0.018518534,1,0,0,targImage,,,,,,,1,0.375,n,,001,2020-07-05_08h42.28.613,choiceRTT,3.1.3,60,1,0,40,3,1,39
,0,0.374074112,-0.013888904,1,0,0,targImage,,,,,,,1.6666,0.375,n,,001,2020-07-05_08h42.28.613,choiceRTT,3.1.3,60,1,0,40,15,1,39
