response.keys,response.corr,mouseResp.x,mouseResp.y,mouseResp.leftButton,mouseResp.midButton,mouseResp.rightButton,mouseResp.clicked_name,practiceTrials.thisRepN,practiceTrials.thisTrialN,practiceTrials.thisN,practiceTrials.thisIndex,practiceTrials.ran,practiceTrials.order,isi,xPos,corrAns,participant,session,date,expName,psychopyVersion,frameRate,mainTrials.thisRepN,mainTrials.thisTrialN,mainTrials.thisN,mainTrials.thisIndex,mainTrials.ran,mainTrials.order
,0,0.325866779,-0.044442455,1,0,0,targImage,1,0,8,7,1,7,1,0.375,n,,001,2020-02-29_13h33.33.165,choiceRTT,3.1.3,60,,,,,,
,0,0.047682126,-0.067939838,1,0,0,targImage,1,0,8,2,1,7,1,0.125,b,,001,2020-02-29_13h33.33.165,choiceRTT,3.1.3,60,,,,,,
,0,0.150628805,-0.057710767,1,0,0,targImage,1,0,8,6,1,7,1,0.125,b,,001,2020-02-29_13h33.33.165,choiceRTT,3.1.3,60,,,,,,
,0,0.288085381,-0.042753299,1,0,0,targImage,1,0,8,3,1,7,1,0.375,n,,001,2020-02-29_13h33.33.165,choiceRTT,3.1.3,60,,,,,,
,0,-0.034946839,-0.062388142,1,0,0,targImage,1,0,8,5,1,7,1,-0.125,v,,001,2020-02-29_13h33.33.165,choiceRTT,3.1.3,60,,,,,,
,0,-0.449996591,-0.024285158,1,0,0,targImage,1,0,8,4,1,7,1,-0.375,c,,001,2020-02-29_13h33.33.165,choiceRTT,3.1.3,60,,,,,,
,0,-0.055406253,-0.073759834,1,0,0,targImage,1,0,8,1,1,7,1,-0.125,v,,001,2020-02-29_13h33.33.165,choiceRTT,3.1.3,60,,,,,,
,0,-0.34259665,0.008216818,1,0,0,targImage,1,0,8,0,1,7,1,-0.375,c,,001,2020-02-29_13h33.33.165,choiceRTT,3.1.3,60,,,,,,
,0,0.34963274,0.008696357,1,0,0,targImage,,,,,,,2.7776,0.375,n,,001,2020-02-29_13h33.33.165,choiceRTT,3.1.3,60,1,0,40,35,1,39
,0,-0.441097339,0.041504184,1,0,0,targImage,,,,,,,1.8888,-0.375,c,,001,2020-02-29_13h33.33.165,choiceRTT,3.1.3,60,1,0,40,16,1,39
,0,-0.377109408,0.017484268,1,0,0,targImage,,,,,,,2.7776,-0.375,c,,001,2020-02-29_13h33.33.165,choiceRTT,3.1.3,60,1,0,40,32,1,39
,0,0.08634003,-0.017203808,1,0,0,targImage,,,,,,,2.5554,0.125,b,,001,2020-02-29_13h33.33.165,choiceRTT,3.1.3,60,1,0,40,30,1,39
,0,-0.118635575,-0.052025874,1,0,0,targImage,,,,,,,2.9998,-0.125,v,,001,2020-02-29_13h33.33.165,choiceRTT,3.1.3,60,1,0,40,37,1,39
,0,-0.151080529,-0.021936377,1,0,0,targImage,,,,,,,2.7776,-0.125,v,,001,2020-02-29_13h33.33.165,choiceRTT,3.1.3,60,1,0,40,33,1,39
,0,0.32019941,-0.022839308,1,0,0,targImage,,,,,,,1.8888,0.375,n,,001,2020-02-29_13h33.33.165,choiceRTT,3.1.3,60,1,0,40,19,1,39
,0,0.124811649,-0.06020534,1,0,0,targImage,,,,,,,2.111,0.125,b,,001,2020-02-29_13h33.33.165,choiceRTT,3.1.3,60,1,0,40,22,1,39
,0,-0.277128617,0.003480474,1,0,0,targImage,,,,,,,1,-0.375,c,,001,2020-02-29_13h33.33.165,choiceRTT,3.1.3,60,1,0,40,0,1,39
,0,0.15077885,0.024088542,1,0,0,targImage,,,,,,,1.8888,0.125,b,,001,2020-02-29_13h33.33.165,choiceRTT,3.1.3,60,1,0,40,18,1,39
,0,-0.147306283,0.038383961,1,0,0,targImage,,,,,,,1.2222,-0.125,v,,001,2020-02-29_13h33.33.165,choiceRTT,3.1.3,60,1,0,40,5,1,39
,0,0.154124737,0.023874084,1,0,0,targImage,,,,,,,1.2222,0.125,b,,001,2020-02-29_13h33.33.165,choiceRTT,3.1.3,60,1,0,40,6,1,39
,0,0.31955409,0.024518172,1,0,0,targImage,,,,,,,1.4444,0.375,n,,001,2020-02-29_13h33.33.165,choiceRTT,3.1.3,60,1,0,40,11,1,39
,0,-0.13533624,0.006282886,1,0,0,targImage,,,,,,,1.6666,-0.125,v,,001,2020-02-29_13h33.33.165,choiceRTT,3.1.3,60,1,0,40,13,1,39
,0,-0.129765511,0.01763463,1,0,0,targImage,,,,,,,1,-0.125,v,,001,2020-02-29_13h33.33.165,choiceRTT,3.1.3,60,1,0,40,1,1,39
,0,-0.192258517,0.004331152,1,0,0,targImage,,,,,,,1.8888,-0.125,v,,001,2020-02-29_13h33.33.165,choiceRTT,3.1.3,60,1,0,40,17,1,39
,0,0.355288267,0.092744708,1,0,0,targImage,,,,,,,1.6666,0.375,n,,001,2020-02-29_13h33.33.165,choiceRTT,3.1.3,60,1,0,40,15,1,39
,0,-0.309900641,-0.055308024,1,0,0,targImage,,,,,,,1.6666,-0.375,c,,001,2020-02-29_13h33.33.165,choiceRTT,3.1.3,60,1,0,40,12,1,39
,0,0.35031565,0.016098102,1,0,0,targImage,,,,,,,2.111,0.375,n,,001,2020-02-29_13h33.33.165,choiceRTT,3.1.3,60,1,0,40,23,1,39
,0,0.126291513,-0.017602483,1,0,0,targImage,,,,,,,2.9998,0.125,b,,001,2020-02-29_13h33.33.165,choiceRTT,3.1.3,60,1,0,40,38,1,39
,0,-0.309113145,-0.080567876,1,0,0,targImage,,,,,,,2.3332,-0.375,c,,001,2020-02-29_13h33.33.165,choiceRTT,3.1.3,60,1,0,40,24,1,39
,0,-0.366747737,-0.009070357,1,0,0,targImage,,,,,,,1.4444,-0.375,c,,001,2020-02-29_13h33.33.165,choiceRTT,3.1.3,60,1,0,40,8,1,39
,0,-0.099152883,-0.081927458,1,0,0,targImage,,,,,,,2.3332,-0.125,v,,001,2020-02-29_13h33.33.165,choiceRTT,3.1.3,60,1,0,40,25,1,39
,0,0.077395837,-0.006690383,1,0,0,targImage,,,,,,,2.7776,0.125,b,,001,2020-02-29_13h33.33.165,choiceRTT,3.1.3,60,1,0,40,34,1,39
,0,0.27935942,-0.045686642,1,0,0,targImage,,,,,,,1,0.375,n,,001,2020-02-29_13h33.33.165,choiceRTT,3.1.3,60,1,0,40,3,1,39
,0,0.441819191,-0.007857362,1,0,0,targImage,,,,,,,2.3332,0.375,n,,001,2020-02-29_13h33.33.165,choiceRTT,3.1.3,60,1,0,40,27,1,39
,0,-0.091459036,-0.030001998,1,0,0,targImage,,,,,,,2.5554,-0.125,v,,001,2020-02-29_13h33.33.165,choiceRTT,3.1.3,60,1,0,40,29,1,39
,0,-0.362341722,-0.042168935,1,0,0,targImage,,,,,,,2.111,-0.375,c,,001,2020-02-29_13h33.33.165,choiceRTT,3.1.3,60,1,0,40,20,1,39
,0,0.095526139,-0.026127259,1,0,0,targImage,,,,,,,1.6666,0.125,b,,001,2020-02-29_13h33.33.165,choiceRTT,3.1.3,60,1,0,40,14,1,39
,0,0.408544461,0.009442131,1,0,0,targImage,,,,,,,2.9998,0.375,n,,001,2020-02-29_13h33.33.165,choiceRTT,3.1.3,60,1,0,40,39,1,39
,0,-0.371271094,0.01254038,1,0,0,targImage,,,,,,,2.5554,-0.375,c,,001,2020-02-29_13h33.33.165,choiceRTT,3.1.3,60,1,0,40,28,1,39
,0,0.31911246,-0.008200685,1,0,0,targImage,,,,,,,1.2222,0.375,n,,001,2020-02-29_13h33.33.165,choiceRTT,3.1.3,60,1,0,40,7,1,39
,0,0.182095528,0.010490696,1,0,0,targImage,,,,,,,1.4444,0.125,b,,001,2020-02-29_13h33.33.165,choiceRTT,3.1.3,60,1,0,40,10,1,39
,0,0.399127007,-0.02004377,1,0,0,targImage,,,,,,,2.5554,0.375,n,,001,2020-02-29_13h33.33.165,choiceRTT,3.1.3,60,1,0,40,31,1,39
,0,-0.382444461,-0.001257857,1,0,0,targImage,,,,,,,1.2222,-0.375,c,,001,2020-02-29_13h33.33.165,choiceRTT,3.1.3,60,1,0,40,4,1,39
,0,-0.078586658,0.010314465,1,0,0,targImage,,,,,,,1.4444,-0.125,v,,001,2020-02-29_13h33.33.165,choiceRTT,3.1.3,60,1,0,40,9,1,39
,0,0.041474422,-0.089660207,1,0,0,targImage,,,,,,,1,0.125,b,,001,2020-02-29_13h33.33.165,choiceRTT,3.1.3,60,1,0,40,2,1,39
,0,-0.288233479,-0.023451606,1,0,0,targImage,,,,,,,2.9998,-0.375,c,,001,2020-02-29_13h33.33.165,choiceRTT,3.1.3,60,1,0,40,36,1,39
,0,-0.062746525,-0.000883818,1,0,0,targImage,,,,,,,2.111,-0.125,v,,001,2020-02-29_13h33.33.165,choiceRTT,3.1.3,60,1,0,40,21,1,39
,0,0.036025763,-0.061646978,1,0,0,targImage,,,,,,,2.3332,0.125,b,,001,2020-02-29_13h33.33.165,choiceRTT,3.1.3,60,1,0,40,26,1,39
