response.keys,response.corr,mouseResp.x,mouseResp.y,mouseResp.leftButton,mouseResp.midButton,mouseResp.rightButton,mouseResp.clicked_name,practiceTrials.thisRepN,practiceTrials.thisTrialN,practiceTrials.thisN,practiceTrials.thisIndex,practiceTrials.ran,practiceTrials.order,isi,xPos,corrAns,participant,session,date,expName,psychopyVersion,frameRate,mainTrials.thisRepN,mainTrials.thisTrialN,mainTrials.thisN,mainTrials.thisIndex,mainTrials.ran,mainTrials.order
,0,0.370370389,0.000925918,1,0,0,targImage,1,0,8,3,1,7,1,0.375,n,participant,001,2021-03-08_14h56.31.668,choiceRTT,3.1.3,60,,,,,,
,0,-0.34814814,-0.043518527,1,0,0,targImage,1,0,8,4,1,7,1,-0.375,c,participant,001,2021-03-08_14h56.31.668,choiceRTT,3.1.3,60,,,,,,
,0,0.123148163,-0.001851859,1,0,0,targImage,1,0,8,2,1,7,1,0.125,b,participant,001,2021-03-08_14h56.31.668,choiceRTT,3.1.3,60,,,,,,
,0,-0.395370363,-0.015740748,1,0,0,targImage,1,0,8,0,1,7,1,-0.375,c,participant,001,2021-03-08_14h56.31.668,choiceRTT,3.1.3,60,,,,,,
,0,0.3314815,-0.004629637,1,0,0,targImage,1,0,8,7,1,7,1,0.375,n,participant,001,2021-03-08_14h56.31.668,choiceRTT,3.1.3,60,,,,,,
,0,-0.177777767,-0.012962971,1,0,0,targImage,1,0,8,1,1,7,1,-0.125,v,participant,001,2021-03-08_14h56.31.668,choiceRTT,3.1.3,60,,,,,,
,0,-0.153703693,0.000925918,1,0,0,targImage,1,0,8,5,1,7,1,-0.125,v,participant,001,2021-03-08_14h56.31.668,choiceRTT,3.1.3,60,,,,,,
,0,0.14444446,0.018518511,1,0,0,targImage,1,0,8,6,1,7,1,0.125,b,participant,001,2021-03-08_14h56.31.668,choiceRTT,3.1.3,60,,,,,,
,0,0.440740761,-0.031481489,1,0,0,targImage,,,,,,,1.2222,0.375,n,participant,001,2021-03-08_14h56.31.668,choiceRTT,3.1.3,60,1,0,40,7,1,39
,0,-0.466666632,-0.012962971,1,0,0,targImage,,,,,,,1.6666,-0.375,c,participant,001,2021-03-08_14h56.31.668,choiceRTT,3.1.3,60,1,0,40,12,1,39
,0,-0.137962952,-0.032407415,1,0,0,targImage,,,,,,,2.3332,-0.125,v,participant,001,2021-03-08_14h56.31.668,choiceRTT,3.1.3,60,1,0,40,25,1,39
,0,0.30925939,-0.02685186,1,0,0,targImage,,,,,,,1.8888,0.375,n,participant,001,2021-03-08_14h56.31.668,choiceRTT,3.1.3,60,1,0,40,19,1,39
,0,-0.363888881,-0.025000008,1,0,0,targImage,,,,,,,1.8888,-0.375,c,participant,001,2021-03-08_14h56.31.668,choiceRTT,3.1.3,60,1,0,40,16,1,39
,0,-0.439814808,0.012962956,1,0,0,targImage,,,,,,,1,-0.375,c,participant,001,2021-03-08_14h56.31.668,choiceRTT,3.1.3,60,1,0,40,0,1,39
,0,-0.133333322,-0.010185193,1,0,0,targImage,,,,,,,1.6666,-0.125,v,participant,001,2021-03-08_14h56.31.668,choiceRTT,3.1.3,60,1,0,40,13,1,39
,0,0.143518534,-0.019444452,1,0,0,targImage,,,,,,,1.2222,0.125,b,participant,001,2021-03-08_14h56.31.668,choiceRTT,3.1.3,60,1,0,40,6,1,39
,0,-0.340740733,-0.045370378,1,0,0,targImage,,,,,,,2.3332,-0.375,c,participant,001,2021-03-08_14h56.31.668,choiceRTT,3.1.3,60,1,0,40,24,1,39
,0,0.212037053,-0.000925933,1,0,0,targImage,,,,,,,1.6666,0.125,b,participant,001,2021-03-08_14h56.31.668,choiceRTT,3.1.3,60,1,0,40,14,1,39
,0,-0.465740734,-0.015740748,1,0,0,targImage,,,,,,,1.2222,-0.375,c,participant,001,2021-03-08_14h56.31.668,choiceRTT,3.1.3,60,1,0,40,4,1,39
,0,-0.13240734,-0.013888897,1,0,0,targImage,,,,,,,1.2222,-0.125,v,participant,001,2021-03-08_14h56.31.668,choiceRTT,3.1.3,60,1,0,40,5,1,39
,0,0.448148281,-0.025925934,1,0,0,targImage,,,,,,,2.9998,0.375,n,participant,001,2021-03-08_14h56.31.668,choiceRTT,3.1.3,60,1,0,40,39,1,39
,0,0.14444446,-0.010185193,1,0,0,targImage,,,,,,,2.111,0.125,b,participant,001,2021-03-08_14h56.31.668,choiceRTT,3.1.3,60,1,0,40,22,1,39
,0,-0.16574073,0.022222215,1,0,0,targImage,,,,,,,1,-0.125,v,participant,001,2021-03-08_14h56.31.668,choiceRTT,3.1.3,60,1,0,40,1,1,39
,0,-0.149074063,0.006481474,1,0,0,targImage,,,,,,,2.5554,-0.125,v,participant,001,2021-03-08_14h56.31.668,choiceRTT,3.1.3,60,1,0,40,29,1,39
,0,0.438889022,-7.4558E-09,1,0,0,targImage,,,,,,,2.7776,0.375,n,participant,001,2021-03-08_14h56.31.668,choiceRTT,3.1.3,60,1,0,40,35,1,39
,0,0.353703722,-0.016666674,1,0,0,targImage,,,,,,,2.5554,0.375,n,participant,001,2021-03-08_14h56.31.668,choiceRTT,3.1.3,60,1,0,40,31,1,39
,0,0.120370385,0.01203703,1,0,0,targImage,,,,,,,2.3332,0.125,b,participant,001,2021-03-08_14h56.31.668,choiceRTT,3.1.3,60,1,0,40,26,1,39
,0,0.099074089,0.01203703,1,0,0,targImage,,,,,,,1,0.125,b,participant,001,2021-03-08_14h56.31.668,choiceRTT,3.1.3,60,1,0,40,2,1,39
,0,0.422222242,-0.006481489,1,0,0,targImage,,,,,,,1,0.375,n,participant,001,2021-03-08_14h56.31.668,choiceRTT,3.1.3,60,1,0,40,3,1,39
,0,-0.087037025,0.011111104,1,0,0,targImage,,,,,,,2.111,-0.125,v,participant,001,2021-03-08_14h56.31.668,choiceRTT,3.1.3,60,1,0,40,21,1,39
,0,-0.28055549,0.024074067,1,0,0,targImage,,,,,,,1.4444,-0.375,c,participant,001,2021-03-08_14h56.31.668,choiceRTT,3.1.3,60,1,0,40,8,1,39
,0,0.368518537,0.004629622,1,0,0,targImage,,,,,,,1.6666,0.375,n,participant,001,2021-03-08_14h56.31.668,choiceRTT,3.1.3,60,1,0,40,15,1,39
,0,-0.403703696,0.011111104,1,0,0,targImage,,,,,,,2.9998,-0.375,c,participant,001,2021-03-08_14h56.31.668,choiceRTT,3.1.3,60,1,0,40,36,1,39
,0,0.429629762,0.006481474,1,0,0,targImage,,,,,,,2.111,0.375,n,participant,001,2021-03-08_14h56.31.668,choiceRTT,3.1.3,60,1,0,40,23,1,39
,0,0.375000019,0.029629623,1,0,0,targImage,,,,,,,1.4444,0.375,n,participant,001,2021-03-08_14h56.31.668,choiceRTT,3.1.3,60,1,0,40,11,1,39
,0,-0.060185173,-0.02222223,1,0,0,targImage,,,,,,,2.9998,-0.125,v,participant,001,2021-03-08_14h56.31.668,choiceRTT,3.1.3,60,1,0,40,37,1,39
,0,0.096296311,0.033333326,1,0,0,targImage,,,,,,,2.5554,0.125,b,participant,001,2021-03-08_14h56.31.668,choiceRTT,3.1.3,60,1,0,40,30,1,39
,0,0.077777792,0.016666659,1,0,0,targImage,,,,,,,1.8888,0.125,b,participant,001,2021-03-08_14h56.31.668,choiceRTT,3.1.3,60,1,0,40,18,1,39
,0,0.162962979,0.012962956,1,0,0,targImage,,,,,,,2.7776,0.125,b,participant,001,2021-03-08_14h56.31.668,choiceRTT,3.1.3,60,1,0,40,34,1,39
,0,-0.118518451,0.014814808,1,0,0,targImage,,,,,,,1.4444,-0.125,v,participant,001,2021-03-08_14h56.31.668,choiceRTT,3.1.3,60,1,0,40,9,1,39
,0,-0.330555547,0.015740734,1,0,0,targImage,,,,,,,2.7776,-0.375,c,participant,001,2021-03-08_14h56.31.668,choiceRTT,3.1.3,60,1,0,40,32,1,39
,0,-0.396296289,0.021296289,1,0,0,targImage,,,,,,,2.5554,-0.375,c,participant,001,2021-03-08_14h56.31.668,choiceRTT,3.1.3,60,1,0,40,28,1,39
,0,0.067592607,0.013888882,1,0,0,targImage,,,,,,,1.4444,0.125,b,participant,001,2021-03-08_14h56.31.668,choiceRTT,3.1.3,60,1,0,40,10,1,39
,0,0.325925944,0.033333326,1,0,0,targImage,,,,,,,2.3332,0.375,n,participant,001,2021-03-08_14h56.31.668,choiceRTT,3.1.3,60,1,0,40,27,1,39
,0,0.091666681,0.01203703,1,0,0,targImage,,,,,,,2.9998,0.125,b,participant,001,2021-03-08_14h56.31.668,choiceRTT,3.1.3,60,1,0,40,38,1,39
,0,-0.063888877,0.004629622,1,0,0,targImage,,,,,,,1.8888,-0.125,v,participant,001,2021-03-08_14h56.31.668,choiceRTT,3.1.3,60,1,0,40,17,1,39
,0,-0.378703696,0.014814808,1,0,0,targImage,,,,,,,2.111,-0.375,c,participant,001,2021-03-08_14h56.31.668,choiceRTT,3.1.3,60,1,0,40,20,1,39
,0,-0.099074062,-0.016666674,1,0,0,targImage,,,,,,,2.7776,-0.125,v,participant,001,2021-03-08_14h56.31.668,choiceRTT,3.1.3,60,1,0,40,33,1,39
