keyResp.keys,keyResp.corr,mouseResp.x,mouseResp.y,mouseResp.leftButton,mouseResp.midButton,mouseResp.rightButton,mouseResp.time,mouseResp.clicked_name,correctMouseResp,trialRespTimes,moveOnKeys.keys,PracticeLoop.thisRepN,PracticeLoop.thisTrialN,PracticeLoop.thisN,PracticeLoop.thisIndex,PracticeLoop.ran,onsetTime,thisImage,participant,session,date,expName,psychopyVersion,OS,frameRate,moveOnKeys.rt,key_resp.keys,mouse.x,mouse.y,mouse.leftButton,mouse.midButton,mouse.rightButton,keyResp.rt,ExptLoop.thisRepN,ExptLoop.thisTrialN,ExptLoop.thisN,ExptLoop.thisIndex,ExptLoop.ran
,0,-0.19351849,-0.237963019,1,0,0,3.6098,cross_button,0,2.3098,,0,0,0,8,1,1.3,images/target_square.jpg,,001,2023-07-02_15h05.30.852,choiceRTT,2021.2.3,Win32,59.9880024,,,,,,,,,,,,,
,0,-0.194444444,-0.244444444,1,0,0,3.4667,cross_button,0,1.9667,,0,1,1,4,1,1.5,images/target_plus.jpg,,001,2023-07-02_15h05.30.852,choiceRTT,2021.2.3,Win32,59.9880024,,,,,,,,,,,,,
,0,-0.269444444,-0.248148176,1,0,0,3.1553,cross_button,1,2.0553,,0,2,2,0,1,1.1,images/target_cross.jpg,,001,2023-07-02_15h05.30.852,choiceRTT,2021.2.3,Win32,59.9880024,,,,,,,,,,,,,
,0,0.279629686,-0.243518575,1,0,0,3.6037,plus_button,1,2.3037,,0,3,3,1,1,1.3,images/target_plus.jpg,,001,2023-07-02_15h05.30.852,choiceRTT,2021.2.3,Win32,59.9880024,,,,,,,,,,,,,
,0,-0.015740712,-0.237963019,1,0,0,2.8002,square_button,1,1.3002,,0,4,4,2,1,1.5,images/target_square.jpg,,001,2023-07-02_15h05.30.852,choiceRTT,2021.2.3,Win32,59.9880024,,,,,,,,,,,,,
,0,-0.249074046,-0.262037065,1,0,0,4.0056,cross_button,1,2.7056,,0,5,5,3,1,1.3,images/target_cross.jpg,,001,2023-07-02_15h05.30.852,choiceRTT,2021.2.3,Win32,59.9880024,,,,,,,,,,,,,
,0,-0.025,-0.236111111,1,0,0,2.2534,square_button,1,1.1534,,0,6,6,5,1,1.1,images/target_square.jpg,,001,2023-07-02_15h05.30.852,choiceRTT,2021.2.3,Win32,59.9880024,,,,,,,,,,,,,
,0,0.237963019,-0.240740797,1,0,0,2.5747,plus_button,1,1.4747,,0,7,7,7,1,1.1,images/target_plus.jpg,,001,2023-07-02_15h05.30.852,choiceRTT,2021.2.3,Win32,59.9880024,,,,,,,,,,,,,
,0,-0.199667221,-0.22046589,1,0,0,4.964,cross_button,1,3.464,space,0,8,8,6,1,1.5,images/target_cross.jpg,,001,2023-07-02_15h05.30.852,choiceRTT,2021.2.3,Win32,59.9880024,2.2545,,,,,,,,,,,,
b,1,,,,,,,,,2.1987,,,,,,,1.5,images/target_plus.jpg,,001,2023-07-02_15h05.30.852,choiceRTT,2021.2.3,Win32,59.9880024,,,-0.018857426,-0.25374376,1,0,0,3.6987,0,0,0,4,1
c,1,,,,,,,,,1.795,,,,,,,1.1,images/target_cross.jpg,,001,2023-07-02_15h05.30.852,choiceRTT,2021.2.3,Win32,59.9880024,,,,,,,,2.895,0,1,1,0,1
b,1,,,,,,,,,2.0766,,,,,,,1.1,images/target_plus.jpg,,001,2023-07-02_15h05.30.852,choiceRTT,2021.2.3,Win32,59.9880024,,,,,,,,3.1766,0,2,2,7,1
c,1,,,,,,,,,0.5479,,,,,,,1.3,images/target_cross.jpg,,001,2023-07-02_15h05.30.852,choiceRTT,2021.2.3,Win32,59.9880024,,,,,,,,1.8479,0,3,3,3,1
v,1,,,,,,,,,0.4952,,,,,,,1.3,images/target_square.jpg,,001,2023-07-02_15h05.30.852,choiceRTT,2021.2.3,Win32,59.9880024,,,,,,,,1.7952,0,4,4,8,1
c,1,,,,,,,,,0.668,,,,,,,1.5,images/target_cross.jpg,,001,2023-07-02_15h05.30.852,choiceRTT,2021.2.3,Win32,59.9880024,,,,,,,,2.168,0,5,5,6,1
v,1,,,,,,,,,0.6458,,,,,,,1.1,images/target_square.jpg,,001,2023-07-02_15h05.30.852,choiceRTT,2021.2.3,Win32,59.9880024,,,,,,,,1.7458,0,6,6,5,1
c,0,,,,,,,,,0.4376,,,,,,,1.3,images/target_plus.jpg,,001,2023-07-02_15h05.30.852,choiceRTT,2021.2.3,Win32,59.9880024,,,,,,,,1.7376,0,7,7,1,1
v,1,,,,,,,,,0.6045,,,,,,,1.5,images/target_square.jpg,,001,2023-07-02_15h05.30.852,choiceRTT,2021.2.3,Win32,59.9880024,,,,,,,,2.1045,0,8,8,2,1
b,1,,,,,,,,,0.6552,,,,,,,1.3,images/target_plus.jpg,,001,2023-07-02_15h05.30.852,choiceRTT,2021.2.3,Win32,59.9880024,,,,,,,,1.9552,1,0,9,1,1
b,1,,,,,,,,,0.3945,,,,,,,1.1,images/target_plus.jpg,,001,2023-07-02_15h05.30.852,choiceRTT,2021.2.3,Win32,59.9880024,,,,,,,,1.4945,1,1,10,7,1
c,1,,,,,,,,,0.5858,,,,,,,1.3,images/target_cross.jpg,,001,2023-07-02_15h05.30.852,choiceRTT,2021.2.3,Win32,59.9880024,,,,,,,,1.8858,1,2,11,3,1
v,1,,,,,,,,,0.6628,,,,,,,1.3,images/target_square.jpg,,001,2023-07-02_15h05.30.852,choiceRTT,2021.2.3,Win32,59.9880024,,,,,,,,1.9628,1,3,12,8,1
b,1,,,,,,,,,1.1806,,,,,,,1.5,images/target_plus.jpg,,001,2023-07-02_15h05.30.852,choiceRTT,2021.2.3,Win32,59.9880024,,,,,,,,2.6806,1,4,13,4,1
v,1,,,,,,,,,0.6025,,,,,,,1.1,images/target_square.jpg,,001,2023-07-02_15h05.30.852,choiceRTT,2021.2.3,Win32,59.9880024,,,,,,,,1.7025,1,5,14,5,1
c,1,,,,,,,,,0.4546,,,,,,,1.1,images/target_cross.jpg,,001,2023-07-02_15h05.30.852,choiceRTT,2021.2.3,Win32,59.9880024,,,,,,,,1.5546,1,6,15,0,1
b,0,,,,,,,,,1.06,,,,,,,1.5,images/target_cross.jpg,,001,2023-07-02_15h05.30.852,choiceRTT,2021.2.3,Win32,59.9880024,,,,,,,,2.56,1,7,16,6,1
v,1,,,,,,,,,0.3822,,,,,,,1.5,images/target_square.jpg,,001,2023-07-02_15h05.30.852,choiceRTT,2021.2.3,Win32,59.9880024,,,,,,,,1.8822,1,8,17,2,1
