response.keys,response.corr,mouseResp.x,mouseResp.y,mouseResp.leftButton,mouseResp.midButton,mouseResp.rightButton,mouseResp.clicked_name,practiceTrials.thisRepN,practiceTrials.thisTrialN,practiceTrials.thisN,practiceTrials.thisIndex,practiceTrials.ran,practiceTrials.order,isi,xPos,corrAns,participant,session,date,expName,psychopyVersion,frameRate,mainTrials.thisRepN,mainTrials.thisTrialN,mainTrials.thisN,mainTrials.thisIndex,mainTrials.ran,mainTrials.order
,0,-0.314977722,0.070909153,1,0,0,targImage,1,0,8,4,1,7,1,-0.375,c,,001,2021-06-11_09h14.00.117,choiceRTT,3.1.3,60,,,,,,
,0,0.427439643,-0.020779351,1,0,0,targImage,1,0,8,7,1,7,1,0.375,n,,001,2021-06-11_09h14.00.117,choiceRTT,3.1.3,60,,,,,,
,0,-0.171076864,-0.021444092,1,0,0,targImage,1,0,8,1,1,7,1,-0.125,v,,001,2021-06-11_09h14.00.117,choiceRTT,3.1.3,60,,,,,,
,0,-0.156013116,0.015467529,1,0,0,targImage,1,0,8,5,1,7,1,-0.125,v,,001,2021-06-11_09h14.00.117,choiceRTT,3.1.3,60,,,,,,
,0,0.453014323,0.072668254,1,0,0,targImage,1,0,8,3,1,7,1,0.375,n,,001,2021-06-11_09h14.00.117,choiceRTT,3.1.3,60,,,,,,
,0,0.158629693,-0.010830214,1,0,0,targImage,1,0,8,2,1,7,1,0.125,b,,001,2021-06-11_09h14.00.117,choiceRTT,3.1.3,60,,,,,,
,0,-0.397334764,0.010178053,1,0,0,targImage,1,0,8,0,1,7,1,-0.375,c,,001,2021-06-11_09h14.00.117,choiceRTT,3.1.3,60,,,,,,
,0,0.100822415,-0.020379232,1,0,0,targImage,1,0,8,6,1,7,1,0.125,b,,001,2021-06-11_09h14.00.117,choiceRTT,3.1.3,60,,,,,,
,0,0.276199341,-0.067334798,1,0,0,targImage,,,,,,,1.2222,0.375,n,,001,2021-06-11_09h14.00.117,choiceRTT,3.1.3,60,1,0,40,7,1,39
,0,-0.44902025,0.008504266,1,0,0,targImage,,,,,,,1.4444,-0.375,c,,001,2021-06-11_09h14.00.117,choiceRTT,3.1.3,60,1,0,40,8,1,39
,0,0.455434977,-0.059705471,1,0,0,targImage,,,,,,,2.111,0.375,n,,001,2021-06-11_09h14.00.117,choiceRTT,3.1.3,60,1,0,40,23,1,39
,0,-0.435302429,0.018921644,1,0,0,targImage,,,,,,,2.9998,-0.375,c,,001,2021-06-11_09h14.00.117,choiceRTT,3.1.3,60,1,0,40,36,1,39
,0,0.150915256,-0.071816474,1,0,0,targImage,,,,,,,1,0.125,b,,001,2021-06-11_09h14.00.117,choiceRTT,3.1.3,60,1,0,40,2,1,39
,0,-0.354059448,0.005520189,1,0,0,targImage,,,,,,,1,-0.375,c,,001,2021-06-11_09h14.00.117,choiceRTT,3.1.3,60,1,0,40,0,1,39
,0,0.452134196,-0.045503404,1,0,0,targImage,,,,,,,1.4444,0.375,n,,001,2021-06-11_09h14.00.117,choiceRTT,3.1.3,60,1,0,40,11,1,39
,0,0.056794095,-0.030760905,1,0,0,targImage,,,,,,,2.111,0.125,b,,001,2021-06-11_09h14.00.117,choiceRTT,3.1.3,60,1,0,40,22,1,39
,0,-0.392773709,-0.034892442,1,0,0,targImage,,,,,,,2.111,-0.375,c,,001,2021-06-11_09h14.00.117,choiceRTT,3.1.3,60,1,0,40,20,1,39
,0,-0.293028937,-0.028613654,1,0,0,targImage,,,,,,,2.3332,-0.375,c,,001,2021-06-11_09h14.00.117,choiceRTT,3.1.3,60,1,0,40,24,1,39
,0,-0.111085748,-0.012164171,1,0,0,targImage,,,,,,,2.7776,-0.125,v,,001,2021-06-11_09h14.00.117,choiceRTT,3.1.3,60,1,0,40,33,1,39
,0,-0.327316522,0.015906915,1,0,0,targImage,,,,,,,1.6666,-0.375,c,,001,2021-06-11_09h14.00.117,choiceRTT,3.1.3,60,1,0,40,12,1,39
,0,-0.088298408,-0.004314914,1,0,0,targImage,,,,,,,2.5554,-0.125,v,,001,2021-06-11_09h14.00.117,choiceRTT,3.1.3,60,1,0,40,29,1,39
,0,-0.106968452,0.004512736,1,0,0,targImage,,,,,,,2.111,-0.125,v,,001,2021-06-11_09h14.00.117,choiceRTT,3.1.3,60,1,0,40,21,1,39
,0,0.03234219,-0.017577311,1,0,0,targImage,,,,,,,1.2222,0.125,b,,001,2021-06-11_09h14.00.117,choiceRTT,3.1.3,60,1,0,40,6,1,39
,0,0.372446967,-0.043891805,1,0,0,targImage,,,,,,,2.9998,0.375,n,,001,2021-06-11_09h14.00.117,choiceRTT,3.1.3,60,1,0,40,39,1,39
,0,-0.118529256,-0.003985291,1,0,0,targImage,,,,,,,2.3332,-0.125,v,,001,2021-06-11_09h14.00.117,choiceRTT,3.1.3,60,1,0,40,25,1,39
,0,0.061283841,-0.013963759,1,0,0,targImage,,,,,,,2.9998,0.125,b,,001,2021-06-11_09h14.00.117,choiceRTT,3.1.3,60,1,0,40,38,1,39
,0,-0.147238702,0.003895128,1,0,0,targImage,,,,,,,1,-0.125,v,,001,2021-06-11_09h14.00.117,choiceRTT,3.1.3,60,1,0,40,1,1,39
,0,0.349105089,0.028128391,1,0,0,targImage,,,,,,,1.8888,0.375,n,,001,2021-06-11_09h14.00.117,choiceRTT,3.1.3,60,1,0,40,19,1,39
,0,-0.439457499,0.070736966,1,0,0,targImage,,,,,,,2.7776,-0.375,c,,001,2021-06-11_09h14.00.117,choiceRTT,3.1.3,60,1,0,40,32,1,39
,0,-0.427504747,0.030242954,1,0,0,targImage,,,,,,,2.5554,-0.375,c,,001,2021-06-11_09h14.00.117,choiceRTT,3.1.3,60,1,0,40,28,1,39
,0,0.390991889,0.009377577,1,0,0,targImage,,,,,,,1.6666,0.375,n,,001,2021-06-11_09h14.00.117,choiceRTT,3.1.3,60,1,0,40,15,1,39
,0,0.079499308,0.006139459,1,0,0,targImage,,,,,,,2.7776,0.125,b,,001,2021-06-11_09h14.00.117,choiceRTT,3.1.3,60,1,0,40,34,1,39
,0,0.367997504,-0.000487366,1,0,0,targImage,,,,,,,2.7776,0.375,n,,001,2021-06-11_09h14.00.117,choiceRTT,3.1.3,60,1,0,40,35,1,39
,0,-0.197326185,0.002358297,1,0,0,targImage,,,,,,,1.8888,-0.125,v,,001,2021-06-11_09h14.00.117,choiceRTT,3.1.3,60,1,0,40,17,1,39
,0,-0.056122504,-0.016311849,1,0,0,targImage,,,,,,,1.6666,-0.125,v,,001,2021-06-11_09h14.00.117,choiceRTT,3.1.3,60,1,0,40,13,1,39
,0,-0.09349901,-0.011750319,1,0,0,targImage,,,,,,,1.2222,-0.125,v,,001,2021-06-11_09h14.00.117,choiceRTT,3.1.3,60,1,0,40,5,1,39
,0,0.296715427,-0.01579695,1,0,0,targImage,,,,,,,2.3332,0.375,n,,001,2021-06-11_09h14.00.117,choiceRTT,3.1.3,60,1,0,40,27,1,39
,0,0.086168552,0.000538669,1,0,0,targImage,,,,,,,2.3332,0.125,b,,001,2021-06-11_09h14.00.117,choiceRTT,3.1.3,60,1,0,40,26,1,39
,0,-0.051939426,-0.011589491,1,0,0,targImage,,,,,,,2.9998,-0.125,v,,001,2021-06-11_09h14.00.117,choiceRTT,3.1.3,60,1,0,40,37,1,39
,0,0.088989529,-0.00258823,1,0,0,targImage,,,,,,,1.4444,0.125,b,,001,2021-06-11_09h14.00.117,choiceRTT,3.1.3,60,1,0,40,10,1,39
,0,0.059848294,0.001662157,1,0,0,targImage,,,,,,,1.8888,0.125,b,,001,2021-06-11_09h14.00.117,choiceRTT,3.1.3,60,1,0,40,18,1,39
,0,0.348121609,0.002811415,1,0,0,targImage,,,,,,,1,0.375,n,,001,2021-06-11_09h14.00.117,choiceRTT,3.1.3,60,1,0,40,3,1,39
,0,0.070388658,0.01074212,1,0,0,targImage,,,,,,,2.5554,0.125,b,,001,2021-06-11_09h14.00.117,choiceRTT,3.1.3,60,1,0,40,30,1,39
,0,-0.453267687,-0.023293728,1,0,0,targImage,,,,,,,1.8888,-0.375,c,,001,2021-06-11_09h14.00.117,choiceRTT,3.1.3,60,1,0,40,16,1,39
,0,0.281324531,0.042630073,1,0,0,targImage,,,,,,,2.5554,0.375,n,,001,2021-06-11_09h14.00.117,choiceRTT,3.1.3,60,1,0,40,31,1,39
,0,-0.46861067,0.051568536,1,0,0,targImage,,,,,,,1.2222,-0.375,c,,001,2021-06-11_09h14.00.117,choiceRTT,3.1.3,60,1,0,40,4,1,39
,0,-0.072173394,0.010181274,1,0,0,targImage,,,,,,,1.4444,-0.125,v,,001,2021-06-11_09h14.00.117,choiceRTT,3.1.3,60,1,0,40,9,1,39
,0,0.098220554,0.006263699,1,0,0,targImage,,,,,,,1.6666,0.125,b,,001,2021-06-11_09h14.00.117,choiceRTT,3.1.3,60,1,0,40,14,1,39
