keyResp.keys,keyResp.corr,keyResp.rt,mouseResp.x,mouseResp.y,mouseResp.leftButton,mouseResp.midButton,mouseResp.rightButton,mouseResp.time,mouseResp.clicked_name,trialRespTimes,moveOnKeys.keys,PracticeLoop.thisRepN,PracticeLoop.thisTrialN,PracticeLoop.thisN,PracticeLoop.thisIndex,PracticeLoop.ran,onsetTime,thisImage,participant,session,date,expName,psychopyVersion,OS,frameRate,key_resp.keys,mouse.x,mouse.y,mouse.leftButton,mouse.midButton,mouse.rightButton,ExptLoop.thisRepN,ExptLoop.thisTrialN,ExptLoop.thisN,ExptLoop.thisIndex,ExptLoop.ran
c,1,2.259,,,,,,,,1.159,,0,0,0,0,1,1.1,images/target_cross.jpg,,001,2022-02-23_10h26.52.559,choiceRTT,2021.2.3,Win32,60.0240096,,,,,,,,,,,
c,0,1.826,,,,,,,,0.726,,0,1,1,7,1,1.1,images/target_plus.jpg,,001,2022-02-23_10h26.52.559,choiceRTT,2021.2.3,Win32,60.0240096,,,,,,,,,,,
v,1,2.295,,,,,,,,0.995,,0,2,2,8,1,1.3,images/target_square.jpg,,001,2022-02-23_10h26.52.559,choiceRTT,2021.2.3,Win32,60.0240096,,,,,,,,,,,
v,1,2.08,,,,,,,,0.58,,0,3,3,2,1,1.5,images/target_square.jpg,,001,2022-02-23_10h26.52.559,choiceRTT,2021.2.3,Win32,60.0240096,,,,,,,,,,,
v,1,1.777,0.600694444,-0.048611111,1,0,0,0.2,,0.677,,0,4,4,5,1,1.1,images/target_square.jpg,,001,2022-02-23_10h26.52.559,choiceRTT,2021.2.3,Win32,60.0240096,,,,,,,,,,,
c,1,2.365,,,,,,,,0.865,,0,5,5,6,1,1.5,images/target_cross.jpg,,001,2022-02-23_10h26.52.559,choiceRTT,2021.2.3,Win32,60.0240096,,,,,,,,,,,
c,1,1.825,,,,,,,,0.525,,0,6,6,3,1,1.3,images/target_cross.jpg,,001,2022-02-23_10h26.52.559,choiceRTT,2021.2.3,Win32,60.0240096,,,,,,,,,,,
b,1,2.144,,,,,,,,0.844,,0,7,7,1,1,1.3,images/target_plus.jpg,,001,2022-02-23_10h26.52.559,choiceRTT,2021.2.3,Win32,60.0240096,,,,,,,,,,,
b,1,2.41,,,,,,,,0.91,,0,8,8,4,1,1.5,images/target_plus.jpg,,001,2022-02-23_10h26.52.559,choiceRTT,2021.2.3,Win32,60.0240096,,,,,,,,,,,
b,1,2.395,,,,,,,,0.895,,,,,,,1.5,images/target_plus.jpg,,001,2022-02-23_10h26.52.559,choiceRTT,2021.2.3,Win32,60.0240096,,0.053240741,-0.234953704,1,0,0,0,0,0,4,1
c,1,1.743,,,,,,,,0.643,,,,,,,1.1,images/target_cross.jpg,,001,2022-02-23_10h26.52.559,choiceRTT,2021.2.3,Win32,60.0240096,,,,,,,0,1,1,0,1
v,1,1.828,,,,,,,,0.728,,,,,,,1.1,images/target_square.jpg,,001,2022-02-23_10h26.52.559,choiceRTT,2021.2.3,Win32,60.0240096,,,,,,,0,2,2,5,1
b,1,2.496,,,,,,,,1.196,,,,,,,1.3,images/target_plus.jpg,,001,2022-02-23_10h26.52.559,choiceRTT,2021.2.3,Win32,60.0240096,,,,,,,0,3,3,1,1
c,1,2.429,,,,,,,,1.129,,,,,,,1.3,images/target_cross.jpg,,001,2022-02-23_10h26.52.559,choiceRTT,2021.2.3,Win32,60.0240096,,,,,,,0,4,4,3,1
v,1,2.196,,,,,,,,0.696,,,,,,,1.5,images/target_square.jpg,,001,2022-02-23_10h26.52.559,choiceRTT,2021.2.3,Win32,60.0240096,,,,,,,0,5,5,2,1
v,1,2.161,,,,,,,,0.861,,,,,,,1.3,images/target_square.jpg,,001,2022-02-23_10h26.52.559,choiceRTT,2021.2.3,Win32,60.0240096,,,,,,,0,6,6,8,1
b,1,1.663,,,,,,,,0.563,,,,,,,1.1,images/target_plus.jpg,,001,2022-02-23_10h26.52.559,choiceRTT,2021.2.3,Win32,60.0240096,,,,,,,0,7,7,7,1
c,1,2.163,,,,,,,,0.663,,,,,,,1.5,images/target_cross.jpg,,001,2022-02-23_10h26.52.559,choiceRTT,2021.2.3,Win32,60.0240096,,,,,,,0,8,8,6,1
c,1,2.111,,,,,,,,1.011,,,,,,,1.1,images/target_cross.jpg,,001,2022-02-23_10h26.52.559,choiceRTT,2021.2.3,Win32,60.0240096,,,,,,,1,0,9,0,1
c,1,2.143,,,,,,,,0.643,,,,,,,1.5,images/target_cross.jpg,,001,2022-02-23_10h26.52.559,choiceRTT,2021.2.3,Win32,60.0240096,,,,,,,1,1,10,6,1
v,1,2.145,,,,,,,,0.645,,,,,,,1.5,images/target_square.jpg,,001,2022-02-23_10h26.52.559,choiceRTT,2021.2.3,Win32,60.0240096,,,,,,,1,2,11,2,1
v,1,1.645,,,,,,,,0.545,,,,,,,1.1,images/target_square.jpg,,001,2022-02-23_10h26.52.559,choiceRTT,2021.2.3,Win32,60.0240096,,,,,,,1,3,12,5,1
b,1,2.229,,,,,,,,0.929,,,,,,,1.3,images/target_plus.jpg,,001,2022-02-23_10h26.52.559,choiceRTT,2021.2.3,Win32,60.0240096,,,,,,,1,4,13,1,1
v,1,2.012,,,,,,,,0.712,,,,,,,1.3,images/target_square.jpg,,001,2022-02-23_10h26.52.559,choiceRTT,2021.2.3,Win32,60.0240096,,,,,,,1,5,14,8,1
c,0,2.2,,,,,,,,0.7,,,,,,,1.5,images/target_plus.jpg,,001,2022-02-23_10h26.52.559,choiceRTT,2021.2.3,Win32,60.0240096,,,,,,,1,6,15,4,1
c,1,2.029,,,,,,,,0.729,,,,,,,1.3,images/target_cross.jpg,,001,2022-02-23_10h26.52.559,choiceRTT,2021.2.3,Win32,60.0240096,,,,,,,1,7,16,3,1
b,1,1.877,,,,,,,,0.777,,,,,,,1.1,images/target_plus.jpg,,001,2022-02-23_10h26.52.559,choiceRTT,2021.2.3,Win32,60.0240096,,,,,,,1,8,17,7,1
