response.keys,response.corr,mouseResp.x,mouseResp.y,mouseResp.leftButton,mouseResp.midButton,mouseResp.rightButton,mouseResp.clicked_name,practiceTrials.thisRepN,practiceTrials.thisTrialN,practiceTrials.thisN,practiceTrials.thisIndex,practiceTrials.ran,practiceTrials.order,isi,xPos,corrAns,participant,session,date,expName,psychopyVersion,frameRate,mainTrials.thisRepN,mainTrials.thisTrialN,mainTrials.thisN,mainTrials.thisIndex,mainTrials.ran,mainTrials.order
,0,0.189782744,-0.025196483,1,0,0,targImage,1,0,8,2,1,7,1,0.125,b,Piet,001,2020-07-22_05h59.29.163,choiceRTT,3.1.3,60,,,,,,
,0,0.42464173,-0.016874739,1,0,0,targImage,1,0,8,7,1,7,1,0.375,n,Piet,001,2020-07-22_05h59.29.163,choiceRTT,3.1.3,60,,,,,,
,0,0.169440631,-0.035367651,1,0,0,targImage,1,0,8,6,1,7,1,0.125,b,Piet,001,2020-07-22_05h59.29.163,choiceRTT,3.1.3,60,,,,,,
,0,0.397827074,-0.029819748,1,0,0,targImage,1,0,8,3,1,7,1,0.375,n,Piet,001,2020-07-22_05h59.29.163,choiceRTT,3.1.3,60,,,,,,
,0,-0.156957904,-0.073277964,1,0,0,targImage,1,0,8,1,1,7,1,-0.125,v,Piet,001,2020-07-22_05h59.29.163,choiceRTT,3.1.3,60,,,,,,
,0,-0.362228384,-0.027970397,1,0,0,targImage,1,0,8,4,1,7,1,-0.375,c,Piet,001,2020-07-22_05h59.29.163,choiceRTT,3.1.3,60,,,,,,
,0,-0.16250577,-0.052935776,1,0,0,targImage,1,0,8,5,1,7,1,-0.125,v,Piet,001,2020-07-22_05h59.29.163,choiceRTT,3.1.3,60,,,,,,
,0,-0.366851594,-0.062182158,1,0,0,targImage,1,0,8,0,1,7,1,-0.375,c,Piet,001,2020-07-22_05h59.29.163,choiceRTT,3.1.3,60,,,,,,
,0,-0.117198314,-0.062182158,1,0,0,targImage,,,,,,,1.8888,-0.125,v,Piet,001,2020-07-22_05h59.29.163,choiceRTT,3.1.3,60,1,0,40,17,1,39
,0,-0.087609782,-0.097318557,1,0,0,targImage,,,,,,,1,-0.125,v,Piet,001,2020-07-22_05h59.29.163,choiceRTT,3.1.3,60,1,0,40,1,1,39
,0,-0.133841876,-0.069579337,1,0,0,targImage,,,,,,,1.4444,-0.125,v,Piet,001,2020-07-22_05h59.29.163,choiceRTT,3.1.3,60,1,0,40,9,1,39
,0,0.188858106,-0.018724016,1,0,0,targImage,,,,,,,1.4444,0.125,b,Piet,001,2020-07-22_05h59.29.163,choiceRTT,3.1.3,60,1,0,40,10,1,39
,0,-0.165279685,-0.06125752,1,0,0,targImage,,,,,,,1.2222,-0.125,v,Piet,001,2020-07-22_05h59.29.163,choiceRTT,3.1.3,60,1,0,40,5,1,39
,0,-0.084835867,-0.029819748,1,0,0,targImage,,,,,,,2.111,-0.125,v,Piet,001,2020-07-22_05h59.29.163,choiceRTT,3.1.3,60,1,0,40,21,1,39
,0,0.101017109,-0.038141491,1,0,0,targImage,,,,,,,2.5554,0.125,b,Piet,001,2020-07-22_05h59.29.163,choiceRTT,3.1.3,60,1,0,40,30,1,39
,0,0.37748496,0.029357392,1,0,0,targImage,,,,,,,1.2222,0.375,n,Piet,001,2020-07-22_05h59.29.163,choiceRTT,3.1.3,60,1,0,40,7,1,39
,0,-0.119047628,-0.026121121,1,0,0,targImage,,,,,,,1.6666,-0.125,v,Piet,001,2020-07-22_05h59.29.163,choiceRTT,3.1.3,60,1,0,40,13,1,39
,0,0.10933889,0.017337021,1,0,0,targImage,,,,,,,1,0.125,b,Piet,001,2020-07-22_05h59.29.163,choiceRTT,3.1.3,60,1,0,40,2,1,39
,0,0.367313941,-0.027045759,1,0,0,targImage,,,,,,,2.5554,0.375,n,Piet,001,2020-07-22_05h59.29.163,choiceRTT,3.1.3,60,1,0,40,31,1,39
,0,-0.287332405,0.015487745,1,0,0,targImage,,,,,,,2.3332,-0.375,c,Piet,001,2020-07-22_05h59.29.163,choiceRTT,3.1.3,60,1,0,40,24,1,39
,0,0.356218208,0.003467301,1,0,0,targImage,,,,,,,2.7776,0.375,n,Piet,001,2020-07-22_05h59.29.163,choiceRTT,3.1.3,60,1,0,40,35,1,39
,0,-0.334489137,-0.040915406,1,0,0,targImage,,,,,,,2.111,-0.375,c,Piet,001,2020-07-22_05h59.29.163,choiceRTT,3.1.3,60,1,0,40,20,1,39
,0,0.115811394,-0.01132691,1,0,0,targImage,,,,,,,1.6666,0.125,b,Piet,001,2020-07-22_05h59.29.163,choiceRTT,3.1.3,60,1,0,40,14,1,39
,0,-0.349283404,-0.030744386,1,0,0,targImage,,,,,,,2.7776,-0.375,c,Piet,001,2020-07-22_05h59.29.163,choiceRTT,3.1.3,60,1,0,40,32,1,39
,0,-0.110725847,-0.027970397,1,0,0,targImage,,,,,,,2.9998,-0.125,v,Piet,001,2020-07-22_05h59.29.163,choiceRTT,3.1.3,60,1,0,40,37,1,39
,0,-0.116273676,0.00069346,1,0,0,targImage,,,,,,,2.7776,-0.125,v,Piet,001,2020-07-22_05h59.29.163,choiceRTT,3.1.3,60,1,0,40,33,1,39
,0,-0.3159963,0.007165927,1,0,0,targImage,,,,,,,2.9998,-0.375,c,Piet,001,2020-07-22_05h59.29.163,choiceRTT,3.1.3,60,1,0,40,36,1,39
,0,0.40429969,0.020110936,1,0,0,targImage,,,,,,,1.8888,0.375,n,Piet,001,2020-07-22_05h59.29.163,choiceRTT,3.1.3,60,1,0,40,19,1,39
,0,0.084373548,-0.057558967,1,0,0,targImage,,,,,,,1.8888,0.125,b,Piet,001,2020-07-22_05h59.29.163,choiceRTT,3.1.3,60,1,0,40,18,1,39
,0,0.134304232,-0.056634329,1,0,0,targImage,,,,,,,2.7776,0.125,b,Piet,001,2020-07-22_05h59.29.163,choiceRTT,3.1.3,60,1,0,40,34,1,39
,0,0.357142847,-0.062182158,1,0,0,targImage,,,,,,,2.9998,0.375,n,Piet,001,2020-07-22_05h59.29.163,choiceRTT,3.1.3,60,1,0,40,39,1,39
,0,-0.130143323,-0.019648654,1,0,0,targImage,,,,,,,2.5554,-0.125,v,Piet,001,2020-07-22_05h59.29.163,choiceRTT,3.1.3,60,1,0,40,29,1,39
,0,0.331252904,-0.027970397,1,0,0,targImage,,,,,,,2.111,0.375,n,Piet,001,2020-07-22_05h59.29.163,choiceRTT,3.1.3,60,1,0,40,23,1,39
,0,0.175913098,0.032131306,1,0,0,targImage,,,,,,,2.111,0.125,b,Piet,001,2020-07-22_05h59.29.163,choiceRTT,3.1.3,60,1,0,40,22,1,39
,0,0.116736032,-0.056634329,1,0,0,targImage,,,,,,,1.2222,0.125,b,Piet,001,2020-07-22_05h59.29.163,choiceRTT,3.1.3,60,1,0,40,6,1,39
,0,0.35529357,-0.031669024,1,0,0,targImage,,,,,,,1.6666,0.375,n,Piet,001,2020-07-22_05h59.29.163,choiceRTT,3.1.3,60,1,0,40,15,1,39
,0,0.138927423,-0.053860488,1,0,0,targImage,,,,,,,2.9998,0.125,b,Piet,001,2020-07-22_05h59.29.163,choiceRTT,3.1.3,60,1,0,40,38,1,39
,0,0.144475252,-0.036292215,1,0,0,targImage,,,,,,,2.3332,0.125,b,Piet,001,2020-07-22_05h59.29.163,choiceRTT,3.1.3,60,1,0,40,26,1,39
,0,-0.359454461,-0.074202602,1,0,0,targImage,,,,,,,1.6666,-0.375,c,Piet,001,2020-07-22_05h59.29.163,choiceRTT,3.1.3,60,1,0,40,12,1,39
,0,-0.058021212,0.065418355,1,0,0,targImage,,,,,,,2.3332,-0.125,v,Piet,001,2020-07-22_05h59.29.163,choiceRTT,3.1.3,60,1,0,40,25,1,39
,0,0.331252904,0.003467301,1,0,0,targImage,,,,,,,2.3332,0.375,n,Piet,001,2020-07-22_05h59.29.163,choiceRTT,3.1.3,60,1,0,40,27,1,39
,0,-0.304900605,0.017337021,1,0,0,targImage,,,,,,,1,-0.375,c,Piet,001,2020-07-22_05h59.29.163,choiceRTT,3.1.3,60,1,0,40,0,1,39
,0,0.3645401,-0.007628283,1,0,0,targImage,,,,,,,1,0.375,n,Piet,001,2020-07-22_05h59.29.163,choiceRTT,3.1.3,60,1,0,40,3,1,39
,0,0.352519656,-0.012251548,1,0,0,targImage,,,,,,,1.4444,0.375,n,Piet,001,2020-07-22_05h59.29.163,choiceRTT,3.1.3,60,1,0,40,11,1,39
,0,-0.358529813,-0.032593662,1,0,0,targImage,,,,,,,1.8888,-0.375,c,Piet,001,2020-07-22_05h59.29.163,choiceRTT,3.1.3,60,1,0,40,16,1,39
,0,-0.374248727,-0.027970397,1,0,0,targImage,,,,,,,1.4444,-0.375,c,Piet,001,2020-07-22_05h59.29.163,choiceRTT,3.1.3,60,1,0,40,8,1,39
,0,-0.333564499,-0.028895036,1,0,0,targImage,,,,,,,2.5554,-0.375,c,Piet,001,2020-07-22_05h59.29.163,choiceRTT,3.1.3,60,1,0,40,28,1,39
,0,-0.35113268,-0.030744386,1,0,0,targImage,,,,,,,1.2222,-0.375,c,Piet,001,2020-07-22_05h59.29.163,choiceRTT,3.1.3,60,1,0,40,4,1,39
