response.keys,response.corr,mouseResp.x,mouseResp.y,mouseResp.leftButton,mouseResp.midButton,mouseResp.rightButton,mouseResp.clicked_name,practiceTrials.thisRepN,practiceTrials.thisTrialN,practiceTrials.thisN,practiceTrials.thisIndex,practiceTrials.ran,practiceTrials.order,isi,xPos,corrAns,participant,session,date,expName,psychopyVersion,frameRate,mainTrials.thisRepN,mainTrials.thisTrialN,mainTrials.thisN,mainTrials.thisIndex,mainTrials.ran,mainTrials.order
,0,-0.363888881,-0.041666675,1,0,0,targImage,1,0,8,4,1,7,1,-0.375,c,pippo,001,2021-11-21_18h52.55.828,choiceRTT,3.1.3,60,,,,,,
,0,0.145370386,-0.050000008,1,0,0,targImage,1,0,8,2,1,7,1,0.125,b,pippo,001,2021-11-21_18h52.55.828,choiceRTT,3.1.3,60,,,,,,
,0,0.161111127,0.038888882,1,0,0,targImage,1,0,8,6,1,7,1,0.125,b,pippo,001,2021-11-21_18h52.55.828,choiceRTT,3.1.3,60,,,,,,
,0,0.402777797,0.031481446,1,0,0,targImage,1,0,8,7,1,7,1,0.375,n,pippo,001,2021-11-21_18h52.55.828,choiceRTT,3.1.3,60,,,,,,
,0,-0.291666658,-0.029629638,1,0,0,targImage,1,0,8,0,1,7,1,-0.375,c,pippo,001,2021-11-21_18h52.55.828,choiceRTT,3.1.3,60,,,,,,
,0,-0.125925915,-0.064814823,1,0,0,targImage,1,0,8,5,1,7,1,-0.125,v,pippo,001,2021-11-21_18h52.55.828,choiceRTT,3.1.3,60,,,,,,
,0,0.333333352,0.015740734,1,0,0,targImage,1,0,8,3,1,7,1,0.375,n,pippo,001,2021-11-21_18h52.55.828,choiceRTT,3.1.3,60,,,,,,
,0,-0.107407396,0.010185178,1,0,0,targImage,1,0,8,1,1,7,1,-0.125,v,pippo,001,2021-11-21_18h52.55.828,choiceRTT,3.1.3,60,,,,,,
,0,-0.361111103,0.031481446,1,0,0,targImage,,,,,,,2.5554,-0.375,c,pippo,001,2021-11-21_18h52.55.828,choiceRTT,3.1.3,60,1,0,40,28,1,39
,0,-0.366666659,0.014814808,1,0,0,targImage,,,,,,,2.3332,-0.375,c,pippo,001,2021-11-21_18h52.55.828,choiceRTT,3.1.3,60,1,0,40,24,1,39
,0,-0.115740729,-0.041666675,1,0,0,targImage,,,,,,,2.111,-0.125,v,pippo,001,2021-11-21_18h52.55.828,choiceRTT,3.1.3,60,1,0,40,21,1,39
,0,-0.109259191,-0.040740749,1,0,0,targImage,,,,,,,2.5554,-0.125,v,pippo,001,2021-11-21_18h52.55.828,choiceRTT,3.1.3,60,1,0,40,29,1,39
,0,-0.065740728,-0.024074082,1,0,0,targImage,,,,,,,1.4444,-0.125,v,pippo,001,2021-11-21_18h52.55.828,choiceRTT,3.1.3,60,1,0,40,9,1,39
,0,-0.380555548,-0.039814823,1,0,0,targImage,,,,,,,1.8888,-0.375,c,pippo,001,2021-11-21_18h52.55.828,choiceRTT,3.1.3,60,1,0,40,16,1,39
,0,0.451851872,0.053703697,1,0,0,targImage,,,,,,,2.7776,0.375,n,pippo,001,2021-11-21_18h52.55.828,choiceRTT,3.1.3,60,1,0,40,35,1,39
,0,0.432407427,0.067592586,1,0,0,targImage,,,,,,,2.111,0.375,n,pippo,001,2021-11-21_18h52.55.828,choiceRTT,3.1.3,60,1,0,40,23,1,39
,0,-0.114814803,-0.053703712,1,0,0,targImage,,,,,,,1.2222,-0.125,v,pippo,001,2021-11-21_18h52.55.828,choiceRTT,3.1.3,60,1,0,40,5,1,39
,0,0.429629762,0.020370363,1,0,0,targImage,,,,,,,1.4444,0.375,n,pippo,001,2021-11-21_18h52.55.828,choiceRTT,3.1.3,60,1,0,40,11,1,39
,0,0.344444463,0.0324074,1,0,0,targImage,,,,,,,1.8888,0.375,n,pippo,001,2021-11-21_18h52.55.828,choiceRTT,3.1.3,60,1,0,40,19,1,39
,0,-0.322222214,-0.07685186,1,0,0,targImage,,,,,,,1.2222,-0.375,c,pippo,001,2021-11-21_18h52.55.828,choiceRTT,3.1.3,60,1,0,40,4,1,39
,0,-0.12685184,-0.032407415,1,0,0,targImage,,,,,,,1.6666,-0.125,v,pippo,001,2021-11-21_18h52.55.828,choiceRTT,3.1.3,60,1,0,40,13,1,39
,0,0.413888908,-0.013888897,1,0,0,targImage,,,,,,,1.6666,0.375,n,pippo,001,2021-11-21_18h52.55.828,choiceRTT,3.1.3,60,1,0,40,15,1,39
,0,0.167592608,0.063888854,1,0,0,targImage,,,,,,,2.9998,0.125,b,pippo,001,2021-11-21_18h52.55.828,choiceRTT,3.1.3,60,1,0,40,38,1,39
,0,0.100925941,0.0074074,1,0,0,targImage,,,,,,,1,0.125,b,pippo,001,2021-11-21_18h52.55.828,choiceRTT,3.1.3,60,1,0,40,2,1,39
,0,-0.311111103,0.000925918,1,0,0,targImage,,,,,,,2.7776,-0.375,c,pippo,001,2021-11-21_18h52.55.828,choiceRTT,3.1.3,60,1,0,40,32,1,39
,0,0.406481614,0.024999993,1,0,0,targImage,,,,,,,2.3332,0.375,n,pippo,001,2021-11-21_18h52.55.828,choiceRTT,3.1.3,60,1,0,40,27,1,39
,0,-0.316666658,0.015740734,1,0,0,targImage,,,,,,,1.4444,-0.375,c,pippo,001,2021-11-21_18h52.55.828,choiceRTT,3.1.3,60,1,0,40,8,1,39
,0,0.064814829,-0.093518527,1,0,0,targImage,,,,,,,1.2222,0.125,b,pippo,001,2021-11-21_18h52.55.828,choiceRTT,3.1.3,60,1,0,40,6,1,39
,0,-0.124074063,0.052777771,1,0,0,targImage,,,,,,,2.9998,-0.125,v,pippo,001,2021-11-21_18h52.55.828,choiceRTT,3.1.3,60,1,0,40,37,1,39
,0,0.321296314,-0.044444453,1,0,0,targImage,,,,,,,1.2222,0.375,n,pippo,001,2021-11-21_18h52.55.828,choiceRTT,3.1.3,60,1,0,40,7,1,39
,0,0.16944446,-0.013888897,1,0,0,targImage,,,,,,,1.8888,0.125,b,pippo,001,2021-11-21_18h52.55.828,choiceRTT,3.1.3,60,1,0,40,18,1,39
,0,-0.319444436,-0.002777785,1,0,0,targImage,,,,,,,2.9998,-0.375,c,pippo,001,2021-11-21_18h52.55.828,choiceRTT,3.1.3,60,1,0,40,36,1,39
,0,-0.336111103,0.0074074,1,0,0,targImage,,,,,,,2.111,-0.375,c,pippo,001,2021-11-21_18h52.55.828,choiceRTT,3.1.3,60,1,0,40,20,1,39
,0,-0.12314808,-0.013888897,1,0,0,targImage,,,,,,,2.3332,-0.125,v,pippo,001,2021-11-21_18h52.55.828,choiceRTT,3.1.3,60,1,0,40,25,1,39
,0,-0.124999989,-0.053703712,1,0,0,targImage,,,,,,,1.8888,-0.125,v,pippo,001,2021-11-21_18h52.55.828,choiceRTT,3.1.3,60,1,0,40,17,1,39
,0,0.337962981,-0.05648149,1,0,0,targImage,,,,,,,2.9998,0.375,n,pippo,001,2021-11-21_18h52.55.828,choiceRTT,3.1.3,60,1,0,40,39,1,39
,0,0.142592608,-0.04722223,1,0,0,targImage,,,,,,,2.5554,0.125,b,pippo,001,2021-11-21_18h52.55.828,choiceRTT,3.1.3,60,1,0,40,30,1,39
,0,0.098148163,-0.078703712,1,0,0,targImage,,,,,,,2.111,0.125,b,pippo,001,2021-11-21_18h52.55.828,choiceRTT,3.1.3,60,1,0,40,22,1,39
,0,0.082407422,-0.012037045,1,0,0,targImage,,,,,,,1.6666,0.125,b,pippo,001,2021-11-21_18h52.55.828,choiceRTT,3.1.3,60,1,0,40,14,1,39
,0,0.346296428,-0.009259267,1,0,0,targImage,,,,,,,1,0.375,n,pippo,001,2021-11-21_18h52.55.828,choiceRTT,3.1.3,60,1,0,40,3,1,39
,0,-0.121296285,-0.006481489,1,0,0,targImage,,,,,,,1,-0.125,v,pippo,001,2021-11-21_18h52.55.828,choiceRTT,3.1.3,60,1,0,40,1,1,39
,0,0.380555574,-0.004629637,1,0,0,targImage,,,,,,,2.5554,0.375,n,pippo,001,2021-11-21_18h52.55.828,choiceRTT,3.1.3,60,1,0,40,31,1,39
,0,0.171296312,-0.008333341,1,0,0,targImage,,,,,,,2.7776,0.125,b,pippo,001,2021-11-21_18h52.55.828,choiceRTT,3.1.3,60,1,0,40,34,1,39
,0,-0.34814814,0.001851844,1,0,0,targImage,,,,,,,1,-0.375,c,pippo,001,2021-11-21_18h52.55.828,choiceRTT,3.1.3,60,1,0,40,0,1,39
