participant,session,date,expName,psychopyVersion,OS,frameRate,keyResp.keys,keyResp.corr,mouseResp.x,mouseResp.y,mouseResp.leftButton,mouseResp.midButton,mouseResp.rightButton,mouseResp.time,mouseResp.clicked_name,correctMouseResp,trialRespTimes,moveOnKeys.keys,moveOnKeys.rt,moveOnKeys.duration,PracticeLoop.thisRepN,PracticeLoop.thisTrialN,PracticeLoop.thisN,PracticeLoop.thisIndex,PracticeLoop.ran,onsetTime,thisImage,key_resp.keys,mouse.x,mouse.y,mouse.leftButton,mouse.midButton,mouse.rightButton,keyResp.rt,keyResp.duration,ExptLoop.thisRepN,ExptLoop.thisTrialN,ExptLoop.thisN,ExptLoop.thisIndex,ExptLoop.ran
r,001,2023-09-27_01h34.57.106,choiceRTT,2023.1.3,Win32,59.99160118,,,,,,,,,,,,,,,,,,,,,,,,,,,,,,,,,,
r,001,2023-09-27_01h34.57.106,choiceRTT,2023.1.3,Win32,59.99160118,,0,0.150000042,0,1,0,0,3.666,square_button,1,2.566,space,10.0004,,0,0,0,5,1,1.1,images/target_square.jpg,,,,,,,,,,,,,
r,001,2023-09-27_01h34.57.106,choiceRTT,2023.1.3,Win32,59.99160118,,0,0.240740741,-0.072222215,1,0,0,2.0991,plus_button,0,0.9991,space,7.025,,0,1,1,0,1,1.1,images/target_cross.jpg,,,,,,,,,,,,,
r,001,2023-09-27_01h34.57.106,choiceRTT,2023.1.3,Win32,59.99160118,,0,0.20185188,-0.222222222,1,0,0,3.0166,plus_button,1,1.9166,space,4.0553,,0,2,2,7,1,1.1,images/target_plus.jpg,,,,,,,,,,,,,
r,001,2023-09-27_01h34.57.106,choiceRTT,2023.1.3,Win32,59.99160118,,0,-0.224999958,-0.264814801,1,0,0,2.1833,cross_button,0,0.8833,space,0.8331,,0,3,3,8,1,1.3,images/target_square.jpg,,,,,,,,,,,,,
r,001,2023-09-27_01h34.57.106,choiceRTT,2023.1.3,Win32,59.99160118,,0,-0.253703718,-0.258333347,1,0,0,2.3994,cross_button,1,1.0994,space,1.9733,,0,4,4,3,1,1.3,images/target_cross.jpg,,,,,,,,,,,,,
r,001,2023-09-27_01h34.57.106,choiceRTT,2023.1.3,Win32,59.99160118,,0,0.035185213,-0.26944443,1,0,0,2.2996,square_button,1,0.7996,space,3.3692,,0,5,5,2,1,1.5,images/target_square.jpg,,,,,,,,,,,,,
r,001,2023-09-27_01h34.57.106,choiceRTT,2023.1.3,Win32,59.99160118,,0,-0.337037016,-0.231481481,1,0,0,2.5001,cross_button,1,1.0001,space,1.9875,,0,6,6,6,1,1.5,images/target_cross.jpg,,,,,,,,,,,,,
r,001,2023-09-27_01h34.57.106,choiceRTT,2023.1.3,Win32,59.99160118,,0,0.293518561,-0.212962963,1,0,0,2.116,plus_button,1,0.816,,,,0,7,7,1,1,1.3,images/target_plus.jpg,,,,,,,,,,,,,
r,001,2023-09-27_01h34.57.106,choiceRTT,2023.1.3,Win32,59.99160118,,0,0.357567168,-0.31442714,1,0,0,2.2157,plus_button,1,0.7157,space,3.1485,,0,8,8,4,1,1.5,images/target_plus.jpg,,,,,,,,,,,,,
r,001,2023-09-27_01h34.57.106,choiceRTT,2023.1.3,Win32,59.99160118,,,,,,,,,,,,,,,,,,,,,,,0.02149931,-0.278217839,1,0,0,,,,,,,
r,001,2023-09-27_01h34.57.106,choiceRTT,2023.1.3,Win32,59.99160118,b,1,,,,,,,,,1.2536,,,,,,,,,1.1,images/target_plus.jpg,,,,,,,2.3536,,0,0,0,7,1
r,001,2023-09-27_01h34.57.106,choiceRTT,2023.1.3,Win32,59.99160118,b,0,,,,,,,,,-0.4124,,,,,,,,,1.3,images/target_cross.jpg,,,,,,,0.8876,,0,1,1,3,1
r,001,2023-09-27_01h34.57.106,choiceRTT,2023.1.3,Win32,59.99160118,,0,0.271570014,-0.280480888,0,0,1,0.9665,plus_button,0,-0.5335,,,,,,,,,1.5,images/target_cross.jpg,,,,,,,,,0,2,2,6,1
r,001,2023-09-27_01h34.57.106,choiceRTT,2023.1.3,Win32,59.99160118,,0,0.234229189,-0.296322489,1,0,0,0.6996,plus_button,1,-0.8004,,,,,,,,,1.5,images/target_plus.jpg,,,,,,,,,0,3,3,4,1
r,001,2023-09-27_01h34.57.106,choiceRTT,2023.1.3,Win32,59.99160118,,0,0.338330993,-0.27595479,1,0,0,0.5499,plus_button,0,-0.7501,,,,,,,,,1.3,images/target_square.jpg,,,,,,,,,0,4,4,8,1
r,001,2023-09-27_01h34.57.106,choiceRTT,2023.1.3,Win32,59.99160118,,0,0.338330993,-0.27595479,1,0,0,0.3163,plus_button,0,-1.1837,,,,,,,,,1.5,images/target_square.jpg,,,,,,,,,0,5,5,2,1
r,001,2023-09-27_01h34.57.106,choiceRTT,2023.1.3,Win32,59.99160118,,0,0.338330993,-0.27595479,1,0,0,0.116,plus_button,1,-1.184,,,,,,,,,1.3,images/target_plus.jpg,,,,,,,,,0,6,6,1,1
r,001,2023-09-27_01h34.57.106,choiceRTT,2023.1.3,Win32,59.99160118,,0,0.338330993,-0.27595479,1,0,0,0.2996,plus_button,0,-0.8004,,,,,,,,,1.1,images/target_cross.jpg,,,,,,,,,0,7,7,0,1
r,001,2023-09-27_01h34.57.106,choiceRTT,2023.1.3,Win32,59.99160118,,0,0.314568634,-0.304243333,1,0,0,0.4997,square_button,1,-0.6003,,,,,,,,,1.1,images/target_square.jpg,,,,,,,,,0,8,8,5,1
r,001,2023-09-27_01h34.57.106,choiceRTT,2023.1.3,Win32,59.99160118,,0,0,-0.269165471,1,0,0,0.7829,square_button,0,-0.5171,,,,,,,,,1.3,images/target_cross.jpg,,,,,,,,,1,0,9,3,1
