keyResp.keys,keyResp.corr,keyResp.rt,mouseResp.x,mouseResp.y,mouseResp.leftButton,mouseResp.midButton,mouseResp.rightButton,mouseResp.time,mouseResp.clicked_name,trialRespTimes,moveOnKeys.keys,moveOnKeys.rt,PracticeLoop.thisRepN,PracticeLoop.thisTrialN,PracticeLoop.thisN,PracticeLoop.thisIndex,PracticeLoop.ran,onsetTime,thisImage,participant,session,date,expName,psychopyVersion,OS,frameRate,key_resp.keys,mouse.x,mouse.y,mouse.leftButton,mouse.midButton,mouse.rightButton,ExptLoop.thisRepN,ExptLoop.thisTrialN,ExptLoop.thisN,ExptLoop.thisIndex,ExptLoop.ran
v,0,3.104400001,,,,,,,,1.604400001,space,4.3286,0,0,0,6,1,1.5,images/target_cross.jpg,rosa,001,2022-08-03_13h34.42.230,choiceRTT,2021.2.3,Win32,60.26637739,,,,,,,,,,,
v,1,1.8547,,,,,,,,0.5547,space,3.217,0,1,1,8,1,1.3,images/target_square.jpg,rosa,001,2022-08-03_13h34.42.230,choiceRTT,2021.2.3,Win32,60.26637739,,,,,,,,,,,
v,0,1.0469,,,,,,,,-0.0531,space,3.124900001,0,2,2,0,1,1.1,images/target_cross.jpg,rosa,001,2022-08-03_13h34.42.230,choiceRTT,2021.2.3,Win32,60.26637739,,,,,,,,,,,
v,0,1.071299999,,,,,,,,-0.228700001,space,1.9494,0,3,3,1,1,1.3,images/target_plus.jpg,rosa,001,2022-08-03_13h34.42.230,choiceRTT,2021.2.3,Win32,60.26637739,,,,,,,,,,,
v,1,1.030900001,,,,,,,,-0.069099999,space,0.9775,0,4,4,5,1,1.1,images/target_square.jpg,rosa,001,2022-08-03_13h34.42.230,choiceRTT,2021.2.3,Win32,60.26637739,,,,,,,,,,,
v,0,0.9883,,,,,,,,-0.1117,,,0,5,5,7,1,1.1,images/target_plus.jpg,rosa,001,2022-08-03_13h34.42.230,choiceRTT,2021.2.3,Win32,60.26637739,,,,,,,,,,,
v,0,0.9715,,,,,,,,-0.5285,,,0,6,6,4,1,1.5,images/target_plus.jpg,rosa,001,2022-08-03_13h34.42.230,choiceRTT,2021.2.3,Win32,60.26637739,,,,,,,,,,,
v,1,0.823,,,,,,,,-0.677,,,0,7,7,2,1,1.5,images/target_square.jpg,rosa,001,2022-08-03_13h34.42.230,choiceRTT,2021.2.3,Win32,60.26637739,,,,,,,,,,,
v,0,0.997799999,,,,,,,,-0.302200001,,,0,8,8,3,1,1.3,images/target_cross.jpg,rosa,001,2022-08-03_13h34.42.230,choiceRTT,2021.2.3,Win32,60.26637739,,,,,,,,,,,
v,1,1.5428,,,,,,,,0.2428,,,,,,,,1.3,images/target_square.jpg,rosa,001,2022-08-03_13h34.42.230,choiceRTT,2021.2.3,Win32,60.26637739,,-0.045370384,-0.250925912,1,0,0,0,0,0,8,1
c,0,2.4437,,,,,,,,1.3437,,,,,,,,1.1,images/target_plus.jpg,rosa,001,2022-08-03_13h34.42.230,choiceRTT,2021.2.3,Win32,60.26637739,,,,,,,0,1,1,7,1
c,1,2.7543,,,,,,,,1.2543,,,,,,,,1.5,images/target_cross.jpg,rosa,001,2022-08-03_13h34.42.230,choiceRTT,2021.2.3,Win32,60.26637739,,,,,,,0,2,2,6,1
c,1,1.9719,,,,,,,,0.8719,,,,,,,,1.1,images/target_cross.jpg,rosa,001,2022-08-03_13h34.42.230,choiceRTT,2021.2.3,Win32,60.26637739,,,,,,,0,3,3,0,1
c,1,1.8592,,,,,,,,0.5592,,,,,,,,1.3,images/target_cross.jpg,rosa,001,2022-08-03_13h34.42.230,choiceRTT,2021.2.3,Win32,60.26637739,,,,,,,0,4,4,3,1
v,1,1.6296,,,,,,,,0.5296,,,,,,,,1.1,images/target_square.jpg,rosa,001,2022-08-03_13h34.42.230,choiceRTT,2021.2.3,Win32,60.26637739,,,,,,,0,5,5,5,1
v,0,2.1099,,,,,,,,0.6099,,,,,,,,1.5,images/target_plus.jpg,rosa,001,2022-08-03_13h34.42.230,choiceRTT,2021.2.3,Win32,60.26637739,,,,,,,0,6,6,4,1
b,0,0.1307,,,,,,,,-1.3693,,,,,,,,1.5,images/target_square.jpg,rosa,001,2022-08-03_13h34.42.230,choiceRTT,2021.2.3,Win32,60.26637739,,,,,,,0,7,7,2,1
b,1,0.2204,,,,,,,,-1.0796,,,,,,,,1.3,images/target_plus.jpg,rosa,001,2022-08-03_13h34.42.230,choiceRTT,2021.2.3,Win32,60.26637739,,,,,,,0,8,8,1,1
c,1,2.220299999,,,,,,,,0.920299999,,,,,,,,1.3,images/target_cross.jpg,rosa,001,2022-08-03_13h34.42.230,choiceRTT,2021.2.3,Win32,60.26637739,,,,,,,1,0,9,3,1
b,1,2.2208,,,,,,,,0.7208,,,,,,,,1.5,images/target_plus.jpg,rosa,001,2022-08-03_13h34.42.230,choiceRTT,2021.2.3,Win32,60.26637739,,,,,,,1,1,10,4,1
c,1,2.0255,,,,,,,,0.5255,,,,,,,,1.5,images/target_cross.jpg,rosa,001,2022-08-03_13h34.42.230,choiceRTT,2021.2.3,Win32,60.26637739,,,,,,,1,2,11,6,1
v,1,1.675599999,,,,,,,,0.375599999,,,,,,,,1.3,images/target_square.jpg,rosa,001,2022-08-03_13h34.42.230,choiceRTT,2021.2.3,Win32,60.26637739,,,,,,,1,3,12,8,1
v,1,2.1872,,,,,,,,0.6872,,,,,,,,1.5,images/target_square.jpg,rosa,001,2022-08-03_13h34.42.230,choiceRTT,2021.2.3,Win32,60.26637739,,,,,,,1,4,13,2,1
b,1,1.5887,,,,,,,,0.4887,,,,,,,,1.1,images/target_plus.jpg,rosa,001,2022-08-03_13h34.42.230,choiceRTT,2021.2.3,Win32,60.26637739,,,,,,,1,5,14,7,1
b,1,1.8209,,,,,,,,0.5209,,,,,,,,1.3,images/target_plus.jpg,rosa,001,2022-08-03_13h34.42.230,choiceRTT,2021.2.3,Win32,60.26637739,,,,,,,1,6,15,1,1
v,0,1.6297,,,,,,,,0.5297,,,,,,,,1.1,images/target_cross.jpg,rosa,001,2022-08-03_13h34.42.230,choiceRTT,2021.2.3,Win32,60.26637739,,,,,,,1,7,16,0,1
c,0,0.1648,,,,,,,,-0.9352,,,,,,,,1.1,images/target_square.jpg,rosa,001,2022-08-03_13h34.42.230,choiceRTT,2021.2.3,Win32,60.26637739,,,,,,,1,8,17,5,1
