response.keys,response.corr,mouseResp.x,mouseResp.y,mouseResp.leftButton,mouseResp.midButton,mouseResp.rightButton,mouseResp.clicked_name,practiceTrials.thisRepN,practiceTrials.thisTrialN,practiceTrials.thisN,practiceTrials.thisIndex,practiceTrials.ran,practiceTrials.order,isi,xPos,corrAns,participant,session,date,expName,psychopyVersion,frameRate,mainTrials.thisRepN,mainTrials.thisTrialN,mainTrials.thisN,mainTrials.thisIndex,mainTrials.ran,mainTrials.order
,0,-0.16875,0.034375,1,0,0,targImage,1,0,8,1,1,7,1,-0.125,v,sldfkj,001,2019-04-05_16h00.51.157,choiceRTT,3.0.3,60,,,,,,
,0,-0.353125,0.002083333,1,0,0,targImage,1,0,8,4,1,7,1,-0.375,c,sldfkj,001,2019-04-05_16h00.51.157,choiceRTT,3.0.3,60,,,,,,
,0,0.115625,0.008333333,1,0,0,targImage,1,0,8,2,1,7,1,0.125,b,sldfkj,001,2019-04-05_16h00.51.157,choiceRTT,3.0.3,60,,,,,,
,0,-0.11875,0.004166667,1,0,0,targImage,1,0,8,5,1,7,1,-0.125,v,sldfkj,001,2019-04-05_16h00.51.157,choiceRTT,3.0.3,60,,,,,,
,0,0.29375,0.028125,1,0,0,targImage,1,0,8,3,1,7,1,0.375,n,sldfkj,001,2019-04-05_16h00.51.157,choiceRTT,3.0.3,60,,,,,,
,0,-0.315625,-0.00625,1,0,0,targImage,1,0,8,0,1,7,1,-0.375,c,sldfkj,001,2019-04-05_16h00.51.157,choiceRTT,3.0.3,60,,,,,,
,0,0.364583333,-0.023958333,1,0,0,targImage,1,0,8,7,1,7,1,0.375,n,sldfkj,001,2019-04-05_16h00.51.157,choiceRTT,3.0.3,60,,,,,,
,0,0.158333333,0.002083333,1,0,0,targImage,1,0,8,6,1,7,1,0.125,b,sldfkj,001,2019-04-05_16h00.51.157,choiceRTT,3.0.3,60,,,,,,
,0,0.089583333,0.00625,1,0,0,targImage,,,,,,,1.8888,0.125,b,sldfkj,001,2019-04-05_16h00.51.157,choiceRTT,3.0.3,60,1,0,40,18,1,39
,0,0.385416667,-0.03125,1,0,0,targImage,,,,,,,1.8888,0.375,n,sldfkj,001,2019-04-05_16h00.51.157,choiceRTT,3.0.3,60,1,0,40,19,1,39
,0,-0.316666667,-0.020833333,1,0,0,targImage,,,,,,,1.8888,-0.375,c,sldfkj,001,2019-04-05_16h00.51.157,choiceRTT,3.0.3,60,1,0,40,16,1,39
,0,0.1125,0.002083333,1,0,0,targImage,,,,,,,2.3332,0.125,b,sldfkj,001,2019-04-05_16h00.51.157,choiceRTT,3.0.3,60,1,0,40,26,1,39
,0,0.1125,0.002083333,1,0,0,targImage,,,,,,,2.9998,0.125,b,sldfkj,001,2019-04-05_16h00.51.157,choiceRTT,3.0.3,60,1,0,40,38,1,39
,0,0.1125,0.002083333,1,0,0,targImage,,,,,,,1.2222,0.125,b,sldfkj,001,2019-04-05_16h00.51.157,choiceRTT,3.0.3,60,1,0,40,6,1,39
,0,-0.070833333,-0.021875,1,0,0,targImage,,,,,,,1.4444,-0.125,v,sldfkj,001,2019-04-05_16h00.51.157,choiceRTT,3.0.3,60,1,0,40,9,1,39
,0,0.09375,-0.00625,1,0,0,targImage,,,,,,,1.4444,0.125,b,sldfkj,001,2019-04-05_16h00.51.157,choiceRTT,3.0.3,60,1,0,40,10,1,39
,0,-0.107291667,-0.021875,1,0,0,targImage,,,,,,,1.2222,-0.125,v,sldfkj,001,2019-04-05_16h00.51.157,choiceRTT,3.0.3,60,1,0,40,5,1,39
,0,0.302083333,0.003125,1,0,0,targImage,,,,,,,2.5554,0.375,n,sldfkj,001,2019-04-05_16h00.51.157,choiceRTT,3.0.3,60,1,0,40,31,1,39
,0,0.16875,-0.007291667,1,0,0,targImage,,,,,,,1.6666,0.125,b,sldfkj,001,2019-04-05_16h00.51.157,choiceRTT,3.0.3,60,1,0,40,14,1,39
,0,-0.067708333,-0.021875,1,0,0,targImage,,,,,,,2.7776,-0.125,v,sldfkj,001,2019-04-05_16h00.51.157,choiceRTT,3.0.3,60,1,0,40,33,1,39
,0,-0.340625,-0.022916667,1,0,0,targImage,,,,,,,2.7776,-0.375,c,sldfkj,001,2019-04-05_16h00.51.157,choiceRTT,3.0.3,60,1,0,40,32,1,39
,0,-0.339583333,-0.010416667,1,0,0,targImage,,,,,,,2.111,-0.375,c,sldfkj,001,2019-04-05_16h00.51.157,choiceRTT,3.0.3,60,1,0,40,20,1,39
,0,-0.067708333,0.005208333,1,0,0,targImage,,,,,,,2.9998,-0.125,v,sldfkj,001,2019-04-05_16h00.51.157,choiceRTT,3.0.3,60,1,0,40,37,1,39
,0,0.158333333,-0.046875,1,0,0,targImage,,,,,,,1,0.125,b,sldfkj,001,2019-04-05_16h00.51.157,choiceRTT,3.0.3,60,1,0,40,2,1,39
,0,0.317708333,0.0125,1,0,0,targImage,,,,,,,2.3332,0.375,n,sldfkj,001,2019-04-05_16h00.51.157,choiceRTT,3.0.3,60,1,0,40,27,1,39
,0,-0.047916667,-0.007291667,1,0,0,targImage,,,,,,,2.3332,-0.125,v,sldfkj,001,2019-04-05_16h00.51.157,choiceRTT,3.0.3,60,1,0,40,25,1,39
,0,-0.347916667,0.001041667,1,0,0,targImage,,,,,,,1.2222,-0.375,c,sldfkj,001,2019-04-05_16h00.51.157,choiceRTT,3.0.3,60,1,0,40,4,1,39
,0,0.19375,-0.001041667,1,0,0,targImage,,,,,,,2.111,0.125,b,sldfkj,001,2019-04-05_16h00.51.157,choiceRTT,3.0.3,60,1,0,40,22,1,39
,0,0.342708333,0.019791667,1,0,0,targImage,,,,,,,1.6666,0.375,n,sldfkj,001,2019-04-05_16h00.51.157,choiceRTT,3.0.3,60,1,0,40,15,1,39
,0,0.397916667,0.014583333,1,0,0,targImage,,,,,,,1.2222,0.375,n,sldfkj,001,2019-04-05_16h00.51.157,choiceRTT,3.0.3,60,1,0,40,7,1,39
,0,-0.285416667,-0.001041667,1,0,0,targImage,,,,,,,2.3332,-0.375,c,sldfkj,001,2019-04-05_16h00.51.157,choiceRTT,3.0.3,60,1,0,40,24,1,39
,0,0.44375,0.003125,1,0,0,targImage,,,,,,,1.4444,0.375,n,sldfkj,001,2019-04-05_16h00.51.157,choiceRTT,3.0.3,60,1,0,40,11,1,39
,0,0.398958333,-0.025,1,0,0,targImage,,,,,,,1,0.375,n,sldfkj,001,2019-04-05_16h00.51.157,choiceRTT,3.0.3,60,1,0,40,3,1,39
,0,-0.330208333,-0.01875,1,0,0,targImage,,,,,,,2.9998,-0.375,c,sldfkj,001,2019-04-05_16h00.51.157,choiceRTT,3.0.3,60,1,0,40,36,1,39
,0,0.105208333,-0.005208333,1,0,0,targImage,,,,,,,2.5554,0.125,b,sldfkj,001,2019-04-05_16h00.51.157,choiceRTT,3.0.3,60,1,0,40,30,1,39
,0,0.372916667,-0.010416667,1,0,0,targImage,,,,,,,2.9998,0.375,n,sldfkj,001,2019-04-05_16h00.51.157,choiceRTT,3.0.3,60,1,0,40,39,1,39
,0,0.44375,-0.029166667,1,0,0,targImage,,,,,,,2.7776,0.375,n,sldfkj,001,2019-04-05_16h00.51.157,choiceRTT,3.0.3,60,1,0,40,35,1,39
,0,-0.283333333,-0.016666667,1,0,0,targImage,,,,,,,2.5554,-0.375,c,sldfkj,001,2019-04-05_16h00.51.157,choiceRTT,3.0.3,60,1,0,40,28,1,39
,0,-0.11875,-0.0125,1,0,0,targImage,,,,,,,1,-0.125,v,sldfkj,001,2019-04-05_16h00.51.157,choiceRTT,3.0.3,60,1,0,40,1,1,39
,0,-0.352083333,-0.011458333,1,0,0,targImage,,,,,,,1.4444,-0.375,c,sldfkj,001,2019-04-05_16h00.51.157,choiceRTT,3.0.3,60,1,0,40,8,1,39
,0,-0.342708333,0.002083333,1,0,0,targImage,,,,,,,1,-0.375,c,sldfkj,001,2019-04-05_16h00.51.157,choiceRTT,3.0.3,60,1,0,40,0,1,39
,0,-0.09375,-0.002083333,1,0,0,targImage,,,,,,,2.111,-0.125,v,sldfkj,001,2019-04-05_16h00.51.157,choiceRTT,3.0.3,60,1,0,40,21,1,39
,0,0.329166667,0.0125,1,0,0,targImage,,,,,,,2.111,0.375,n,sldfkj,001,2019-04-05_16h00.51.157,choiceRTT,3.0.3,60,1,0,40,23,1,39
,0,0.169791667,-0.022916667,1,0,0,targImage,,,,,,,2.7776,0.125,b,sldfkj,001,2019-04-05_16h00.51.157,choiceRTT,3.0.3,60,1,0,40,34,1,39
,0,-0.173958333,-0.015625,1,0,0,targImage,,,,,,,1.6666,-0.125,v,sldfkj,001,2019-04-05_16h00.51.157,choiceRTT,3.0.3,60,1,0,40,13,1,39
,0,-0.123958333,0.00625,1,0,0,targImage,,,,,,,2.5554,-0.125,v,sldfkj,001,2019-04-05_16h00.51.157,choiceRTT,3.0.3,60,1,0,40,29,1,39
