participant,session,date,expName,psychopyVersion,OS,frameRate,keyResp.keys,keyResp.corr,mouseResp.x,mouseResp.y,mouseResp.leftButton,mouseResp.midButton,mouseResp.rightButton,mouseResp.time,mouseResp.clicked_name,correctMouseResp,trialRespTimes,moveOnKeys.keys,PracticeLoop.thisRepN,PracticeLoop.thisTrialN,PracticeLoop.thisN,PracticeLoop.thisIndex,PracticeLoop.ran,onsetTime,thisImage,key_resp.keys,mouse.x,mouse.y,mouse.leftButton,mouse.midButton,mouse.rightButton,ExptLoop.thisRepN,ExptLoop.thisTrialN,ExptLoop.thisN,ExptLoop.thisIndex,ExptLoop.ran
Ss,001,2024-01-21_15h24.48.962,choiceRTT,2023.1.3,Linux armv81,119.047619,,,,,,,,,,,,,,,,,,,,,,,,,,,,,,
Ss,001,2024-01-21_15h24.48.962,choiceRTT,2023.1.3,Linux armv81,119.047619,,0,0.023376825,-0.251942329,1,0,0,3.3461,square_button,1,2.0461,,0,0,0,8,1,1.3,images/target_square.jpg,,,,,,,,,,,
Ss,001,2024-01-21_15h24.48.962,choiceRTT,2023.1.3,Linux armv81,119.047619,,0,0.236450267,-0.250786116,1,0,0,2.7042,plus_button,1,1.4042,,0,1,1,1,1,1.3,images/target_plus.jpg,,,,,,,,,,,
Ss,001,2024-01-21_15h24.48.962,choiceRTT,2023.1.3,Linux armv81,119.047619,,0,-0.221605625,-0.202113457,1,0,0,1.9421,cross_button,1,0.6421,,0,2,2,3,1,1.3,images/target_cross.jpg,,,,,,,,,,,
Ss,001,2024-01-21_15h24.48.962,choiceRTT,2023.1.3,Linux armv81,119.047619,,0,0.260613208,-0.294025205,1,0,0,2.2566,plus_button,1,1.1566,,0,3,3,7,1,1.1,images/target_plus.jpg,,,,,,,,,,,
Ss,001,2024-01-21_15h24.48.962,choiceRTT,2023.1.3,Linux armv81,119.047619,,0,0.002104165,-0.242808936,1,0,0,2.9126,square_button,1,1.4126,,0,4,4,2,1,1.5,images/target_square.jpg,,,,,,,,,,,
Ss,001,2024-01-21_15h24.48.962,choiceRTT,2023.1.3,Linux armv81,119.047619,,0,0.031122819,-0.247549093,1,0,0,1.9361,square_button,1,0.8361,,0,5,5,5,1,1.1,images/target_square.jpg,,,,,,,,,,,
Ss,001,2024-01-21_15h24.48.962,choiceRTT,2023.1.3,Linux armv81,119.047619,,0,-0.243803186,-0.240612246,1,0,0,2.013,cross_button,1,0.913,,0,6,6,0,1,1.1,images/target_cross.jpg,,,,,,,,,,,
Ss,001,2024-01-21_15h24.48.962,choiceRTT,2023.1.3,Linux armv81,119.047619,,0,0.197026451,-0.280498577,1,0,0,2.5241,plus_button,1,1.0241,,0,7,7,4,1,1.5,images/target_plus.jpg,,,,,,,,,,,
Ss,001,2024-01-21_15h24.48.962,choiceRTT,2023.1.3,Linux armv81,119.047619,,0,-0.213859594,-0.252982805,1,0,0,2.2794,cross_button,1,0.7794,,0,8,8,6,1,1.5,images/target_cross.jpg,,,,,,,,,,,
Ss,001,2024-01-21_15h24.48.962,choiceRTT,2023.1.3,Linux armv81,119.047619,,,,,,,,,,,,,,,,,,,,,0.022451905,-0.247317764,1,0,0,,,,,
Ss,001,2024-01-21_15h24.48.962,choiceRTT,2023.1.3,Linux armv81,119.047619,,0,-0.227848683,-0.256798078,1,0,0,2.2416,cross_button,1,1.1416,,,,,,,1.1,images/target_cross.jpg,,,,,,,0,0,0,0,1
Ss,001,2024-01-21_15h24.48.962,choiceRTT,2023.1.3,Linux armv81,119.047619,,0,0.235756568,-0.239109399,1,0,0,2.0116,plus_button,1,0.7116,,,,,,,1.3,images/target_plus.jpg,,,,,,,0,1,1,1,1
Ss,001,2024-01-21_15h24.48.962,choiceRTT,2023.1.3,Linux armv81,119.047619,,0,0.004763225,-0.249514454,1,0,0,2.0643,square_button,1,0.7643,,,,,,,1.3,images/target_square.jpg,,,,,,,0,2,2,8,1
Ss,001,2024-01-21_15h24.48.962,choiceRTT,2023.1.3,Linux armv81,119.047619,,0,-0.239756746,-0.259457138,1,0,0,2.2159,cross_button,1,0.7159,,,,,,,1.5,images/target_cross.jpg,,,,,,,0,3,3,6,1
Ss,001,2024-01-21_15h24.48.962,choiceRTT,2023.1.3,Linux armv81,119.047619,,0,0.209050161,-0.291712923,1,0,0,2.4548,plus_button,1,0.9548,,,,,,,1.5,images/target_plus.jpg,,,,,,,0,4,4,4,1
Ss,001,2024-01-21_15h24.48.962,choiceRTT,2023.1.3,Linux armv81,119.047619,,0,0.252173514,-0.247317764,1,0,0,2.0139,plus_button,1,0.9139,,,,,,,1.1,images/target_plus.jpg,,,,,,,0,5,5,7,1
Ss,001,2024-01-21_15h24.48.962,choiceRTT,2023.1.3,Linux armv81,119.047619,,0,0.027307618,-0.261885013,1,0,0,1.7793,square_button,1,0.6793,,,,,,,1.1,images/target_square.jpg,,,,,,,0,6,6,5,1
Ss,001,2024-01-21_15h24.48.962,choiceRTT,2023.1.3,Linux armv81,119.047619,,0,0.028694981,-0.252982805,1,0,0,2.1791,square_button,1,0.6791,,,,,,,1.5,images/target_square.jpg,,,,,,,0,7,7,2,1
Ss,001,2024-01-21_15h24.48.962,choiceRTT,2023.1.3,Linux armv81,119.047619,,0,-0.202876433,-0.256104379,1,0,0,1.9543,cross_button,1,0.6543,,,,,,,1.3,images/target_cross.jpg,,,,,,,0,8,8,3,1
Ss,001,2024-01-21_15h24.48.962,choiceRTT,2023.1.3,Linux armv81,119.047619,,0,0.303042934,-0.199454398,1,0,0,1.9451,plus_button,1,0.6451,,,,,,,1.3,images/target_plus.jpg,,,,,,,1,0,9,1,1
Ss,001,2024-01-21_15h24.48.962,choiceRTT,2023.1.3,Linux armv81,119.047619,,0,-0.218368476,-0.274024244,1,0,0,2.3244,cross_button,1,0.8244,,,,,,,1.5,images/target_cross.jpg,,,,,,,1,1,10,6,1
Ss,001,2024-01-21_15h24.48.962,choiceRTT,2023.1.3,Linux armv81,119.047619,,0,0.027307618,-0.269862193,1,0,0,2.1944,square_button,1,0.6944,,,,,,,1.5,images/target_square.jpg,,,,,,,1,2,11,2,1
Ss,001,2024-01-21_15h24.48.962,choiceRTT,2023.1.3,Linux armv81,119.047619,,0,-0.235594713,-0.261422499,1,0,0,1.8874,cross_button,1,0.7874,,,,,,,1.1,images/target_cross.jpg,,,,,,,1,3,12,0,1
Ss,001,2024-01-21_15h24.48.962,choiceRTT,2023.1.3,Linux armv81,119.047619,,0,-0.184956533,-0.254601389,1,0,0,1.9327,cross_button,1,0.6327,,,,,,,1.3,images/target_cross.jpg,,,,,,,1,4,13,3,1
Ss,001,2024-01-21_15h24.48.962,choiceRTT,2023.1.3,Linux armv81,119.047619,,0,0.245352403,-0.249283269,1,0,0,1.8498,plus_button,1,0.7498,,,,,,,1.1,images/target_plus.jpg,,,,,,,1,5,14,7,1
Ss,001,2024-01-21_15h24.48.962,choiceRTT,2023.1.3,Linux armv81,119.047619,,0,0.268590459,-0.252404699,1,0,0,2.3989,plus_button,1,0.8989,,,,,,,1.5,images/target_plus.jpg,,,,,,,1,6,15,4,1
Ss,001,2024-01-21_15h24.48.962,choiceRTT,2023.1.3,Linux armv81,119.047619,,0,0.004994446,-0.240843575,1,0,0,1.8009,square_button,1,0.7009,,,,,,,1.1,images/target_square.jpg,,,,,,,1,7,16,5,1
Ss,001,2024-01-21_15h24.48.962,choiceRTT,2023.1.3,Linux armv81,119.047619,,0,0.008347205,-0.258300925,1,0,0,1.9473,square_button,1,0.6473,,,,,,,1.3,images/target_square.jpg,,,,,,,1,8,17,8,1
Ss,001,2024-01-21_15h24.48.962,choiceRTT,2023.1.3,Linux armv81,119.047619,,,,,,,,,,,,,,,,,,,,,,,,,,,,,,
