keyResp.keys,keyResp.corr,keyResp.rt,mouseResp.x,mouseResp.y,mouseResp.leftButton,mouseResp.midButton,mouseResp.rightButton,mouseResp.time,mouseResp.clicked_name,trialRespTimes,moveOnKeys.keys,moveOnKeys.rt,PracticeLoop.thisRepN,PracticeLoop.thisTrialN,PracticeLoop.thisN,PracticeLoop.thisIndex,PracticeLoop.ran,onsetTime,thisImage,participant,session,date,expName,psychopyVersion,OS,frameRate,key_resp.keys,key_resp.rt,mouse.x,mouse.y,mouse.leftButton,mouse.midButton,mouse.rightButton,ExptLoop.thisRepN,ExptLoop.thisTrialN,ExptLoop.thisN,ExptLoop.thisIndex,ExptLoop.ran
c,0,2.8512,,,,,,,,1.5512,space,7.0623,0,0,0,1,1,1.3,images/target_plus.jpg,test,001,2023-06-29_09h21.05.419,choiceRTT,2021.2.3,MacIntel,60.0024001,,,,,,,,,,,,
c,0,2.6388,,,,,,,,1.1388,space,7.6359,0,1,1,4,1,1.5,images/target_plus.jpg,test,001,2023-06-29_09h21.05.419,choiceRTT,2021.2.3,MacIntel,60.0024001,,,,,,,,,,,,
c,1,2.8227,,,,,,,,1.7227,space,4.0527,0,2,2,0,1,1.1,images/target_cross.jpg,test,001,2023-06-29_09h21.05.419,choiceRTT,2021.2.3,MacIntel,60.0024001,,,,,,,,,,,,
b,1,1.9196,,,,,,,,0.8196,space,3.0657,0,3,3,7,1,1.1,images/target_plus.jpg,test,001,2023-06-29_09h21.05.419,choiceRTT,2021.2.3,MacIntel,60.0024001,,,,,,,,,,,,
c,1,2.671,,,,,,,,1.371,space,5.6666,0,4,4,3,1,1.3,images/target_cross.jpg,test,001,2023-06-29_09h21.05.419,choiceRTT,2021.2.3,MacIntel,60.0024001,,,,,,,,,,,,
b,0,3.337,,,,,,,,1.837,space,4.7699,0,5,5,2,1,1.5,images/target_square.jpg,test,001,2023-06-29_09h21.05.419,choiceRTT,2021.2.3,MacIntel,60.0024001,,,,,,,,,,,,
v,1,2.5045,,,,,,,,1.2045,space,0.9169,0,6,6,8,1,1.3,images/target_square.jpg,test,001,2023-06-29_09h21.05.419,choiceRTT,2021.2.3,MacIntel,60.0024001,,,,,,,,,,,,
v,1,1.7627,,,,,,,,0.6627,space,0.6672,0,7,7,5,1,1.1,images/target_square.jpg,test,001,2023-06-29_09h21.05.419,choiceRTT,2021.2.3,MacIntel,60.0024001,,,,,,,,,,,,
c,1,2.5294,,,,,,,,1.0294,space,0.6672,0,8,8,6,1,1.5,images/target_cross.jpg,test,001,2023-06-29_09h21.05.419,choiceRTT,2021.2.3,MacIntel,60.0024001,,,,,,,,,,,,
c,1,2.5924,,,,,,,,1.2924,,,,,,,,1.3,images/target_cross.jpg,test,001,2023-06-29_09h21.05.419,choiceRTT,2021.2.3,MacIntel,60.0024001,space,3.3297,0.220232205,-0.367799615,0,0,0,0,0,0,3,1
v,1,2.3956,,,,,,,,0.8956,,,,,,,,1.5,images/target_square.jpg,test,001,2023-06-29_09h21.05.419,choiceRTT,2021.2.3,MacIntel,60.0024001,,,,,,,,0,1,1,2,1
c,1,2.3114,,,,,,,,1.2114,,,,,,,,1.1,images/target_cross.jpg,test,001,2023-06-29_09h21.05.419,choiceRTT,2021.2.3,MacIntel,60.0024001,,,,,,,,0,2,2,0,1
v,1,1.7481,,,,,,,,0.6481,,,,,,,,1.1,images/target_square.jpg,test,001,2023-06-29_09h21.05.419,choiceRTT,2021.2.3,MacIntel,60.0024001,,,,,,,,0,3,3,5,1
v,1,1.9339,,,,,,,,0.6339,,,,,,,,1.3,images/target_square.jpg,test,001,2023-06-29_09h21.05.419,choiceRTT,2021.2.3,MacIntel,60.0024001,,,,,,,,0,4,4,8,1
b,1,2.0956,,,,,,,,0.9956,,,,,,,,1.1,images/target_plus.jpg,test,001,2023-06-29_09h21.05.419,choiceRTT,2021.2.3,MacIntel,60.0024001,,,,,,,,0,5,5,7,1
b,1,2.4807,,,,,,,,0.9807,,,,,,,,1.5,images/target_plus.jpg,test,001,2023-06-29_09h21.05.419,choiceRTT,2021.2.3,MacIntel,60.0024001,,,,,,,,0,6,6,4,1
c,1,2.2859,,,,,,,,0.7859,,,,,,,,1.5,images/target_cross.jpg,test,001,2023-06-29_09h21.05.419,choiceRTT,2021.2.3,MacIntel,60.0024001,,,,,,,,0,7,7,6,1
b,1,2.4308,,,,,,,,1.1308,,,,,,,,1.3,images/target_plus.jpg,test,001,2023-06-29_09h21.05.419,choiceRTT,2021.2.3,MacIntel,60.0024001,,,,,,,,0,8,8,1,1
b,1,1.8932,,,,,,,,0.7932,,,,,,,,1.1,images/target_plus.jpg,test,001,2023-06-29_09h21.05.419,choiceRTT,2021.2.3,MacIntel,60.0024001,,,,,,,,1,0,9,7,1
v,1,2.0408,,,,,,,,0.7408,,,,,,,,1.3,images/target_square.jpg,test,001,2023-06-29_09h21.05.419,choiceRTT,2021.2.3,MacIntel,60.0024001,,,,,,,,1,1,10,8,1
b,1,2.3967,,,,,,,,1.0967,,,,,,,,1.3,images/target_plus.jpg,test,001,2023-06-29_09h21.05.419,choiceRTT,2021.2.3,MacIntel,60.0024001,,,,,,,,1,2,11,1,1
c,1,3.2478,,,,,,,,2.1478,,,,,,,,1.1,images/target_cross.jpg,test,001,2023-06-29_09h21.05.419,choiceRTT,2021.2.3,MacIntel,60.0024001,,,,,,,,1,3,12,0,1
c,1,2.3364,,,,,,,,1.0364,,,,,,,,1.3,images/target_cross.jpg,test,001,2023-06-29_09h21.05.419,choiceRTT,2021.2.3,MacIntel,60.0024001,,,,,,,,1,4,13,3,1
b,1,2.5112,,,,,,,,1.0112,,,,,,,,1.5,images/target_plus.jpg,test,001,2023-06-29_09h21.05.419,choiceRTT,2021.2.3,MacIntel,60.0024001,,,,,,,,1,5,14,4,1
v,1,1.7464,,,,,,,,0.6464,,,,,,,,1.1,images/target_square.jpg,test,001,2023-06-29_09h21.05.419,choiceRTT,2021.2.3,MacIntel,60.0024001,,,,,,,,1,6,15,5,1
c,1,2.702,,,,,,,,1.202,,,,,,,,1.5,images/target_cross.jpg,test,001,2023-06-29_09h21.05.419,choiceRTT,2021.2.3,MacIntel,60.0024001,,,,,,,,1,7,16,6,1
v,1,2.3941,,,,,,,,0.8941,,,,,,,,1.5,images/target_square.jpg,test,001,2023-06-29_09h21.05.419,choiceRTT,2021.2.3,MacIntel,60.0024001,,,,,,,,1,8,17,2,1
