keyResp.keys,keyResp.corr,keyResp.rt,mouseResp.x,mouseResp.y,mouseResp.leftButton,mouseResp.midButton,mouseResp.rightButton,mouseResp.time,mouseResp.clicked_name,trialRespTimes,moveOnKeys.keys,moveOnKeys.rt,PracticeLoop.thisRepN,PracticeLoop.thisTrialN,PracticeLoop.thisN,PracticeLoop.thisIndex,PracticeLoop.ran,onsetTime,thisImage,participant,session,date,expName,psychopyVersion,OS,frameRate,key_resp.keys,key_resp.rt,mouse.x,mouse.y,mouse.leftButton,mouse.midButton,mouse.rightButton,ExptLoop.thisRepN,ExptLoop.thisTrialN,ExptLoop.thisN,ExptLoop.thisIndex,ExptLoop.ran
v,1,2.1756,,,,,,,,1.0756,space,1.4203,0,0,0,5,1,1.1,images/target_square.jpg,testwpj2,001,2023-04-09_18h41.19.016,choiceRTT,2021.2.3,MacIntel,60.04202942,,,,,,,,,,,,
c,1,2.2902,,,,,,,,0.7902,space,1.012,0,1,1,6,1,1.5,images/target_cross.jpg,testwpj2,001,2023-04-09_18h41.19.016,choiceRTT,2021.2.3,MacIntel,60.04202942,,,,,,,,,,,,
v,1,2.2452,,,,,,,,0.7452,space,0.9818,0,2,2,2,1,1.5,images/target_square.jpg,testwpj2,001,2023-04-09_18h41.19.016,choiceRTT,2021.2.3,MacIntel,60.04202942,,,,,,,,,,,,
b,1,2.2569,,,,,,,,1.1569,space,0.9685,0,3,3,7,1,1.1,images/target_plus.jpg,testwpj2,001,2023-04-09_18h41.19.016,choiceRTT,2021.2.3,MacIntel,60.04202942,,,,,,,,,,,,
c,1,1.8205,,,,,,,,0.7205,space,0.8679,0,4,4,0,1,1.1,images/target_cross.jpg,testwpj2,001,2023-04-09_18h41.19.016,choiceRTT,2021.2.3,MacIntel,60.04202942,,,,,,,,,,,,
b,1,2.923,,,,,,,,1.423,space,0.849,0,5,5,4,1,1.5,images/target_plus.jpg,testwpj2,001,2023-04-09_18h41.19.016,choiceRTT,2021.2.3,MacIntel,60.04202942,,,,,,,,,,,,
c,1,2.0223,,,,,,,,0.7223,space,0.7655,0,6,6,3,1,1.3,images/target_cross.jpg,testwpj2,001,2023-04-09_18h41.19.016,choiceRTT,2021.2.3,MacIntel,60.04202942,,,,,,,,,,,,
b,1,2.4873,,,,,,,,1.1873,space,0.5976,0,7,7,1,1,1.3,images/target_plus.jpg,testwpj2,001,2023-04-09_18h41.19.016,choiceRTT,2021.2.3,MacIntel,60.04202942,,,,,,,,,,,,
v,1,2.0378,,,,,,,,0.7378,space,0.8485,0,8,8,8,1,1.3,images/target_square.jpg,testwpj2,001,2023-04-09_18h41.19.016,choiceRTT,2021.2.3,MacIntel,60.04202942,,,,,,,,,,,,
b,1,1.9853,,,,,,,,0.8853,,,,,,,,1.1,images/target_plus.jpg,testwpj2,001,2023-04-09_18h41.19.016,choiceRTT,2021.2.3,MacIntel,60.04202942,space,1.7708,-0.188282539,-0.499982639,0,0,0,0,0,0,7,1
b,1,2.1886,,,,,,,,0.6886,,,,,,,,1.5,images/target_plus.jpg,testwpj2,001,2023-04-09_18h41.19.016,choiceRTT,2021.2.3,MacIntel,60.04202942,,,,,,,,0,1,1,4,1
c,1,2.247,,,,,,,,0.747,,,,,,,,1.5,images/target_cross.jpg,testwpj2,001,2023-04-09_18h41.19.016,choiceRTT,2021.2.3,MacIntel,60.04202942,,,,,,,,0,2,2,6,1
v,1,2.1713,,,,,,,,0.8713,,,,,,,,1.3,images/target_square.jpg,testwpj2,001,2023-04-09_18h41.19.016,choiceRTT,2021.2.3,MacIntel,60.04202942,,,,,,,,0,3,3,8,1
v,1,1.774,,,,,,,,0.674,,,,,,,,1.1,images/target_square.jpg,testwpj2,001,2023-04-09_18h41.19.016,choiceRTT,2021.2.3,MacIntel,60.04202942,,,,,,,,0,4,4,5,1
v,1,2.1057,,,,,,,,0.6057,,,,,,,,1.5,images/target_square.jpg,testwpj2,001,2023-04-09_18h41.19.016,choiceRTT,2021.2.3,MacIntel,60.04202942,,,,,,,,0,5,5,2,1
c,1,1.9548,,,,,,,,0.6548,,,,,,,,1.3,images/target_cross.jpg,testwpj2,001,2023-04-09_18h41.19.016,choiceRTT,2021.2.3,MacIntel,60.04202942,,,,,,,,0,6,6,3,1
b,1,2.0724,,,,,,,,0.7724,,,,,,,,1.3,images/target_plus.jpg,testwpj2,001,2023-04-09_18h41.19.016,choiceRTT,2021.2.3,MacIntel,60.04202942,,,,,,,,0,7,7,1,1
c,1,1.7551,,,,,,,,0.6551,,,,,,,,1.1,images/target_cross.jpg,testwpj2,001,2023-04-09_18h41.19.016,choiceRTT,2021.2.3,MacIntel,60.04202942,,,,,,,,0,8,8,0,1
v,1,1.911,,,,,,,,0.611,,,,,,,,1.3,images/target_square.jpg,testwpj2,001,2023-04-09_18h41.19.016,choiceRTT,2021.2.3,MacIntel,60.04202942,,,,,,,,1,0,9,8,1
c,1,2.1922,,,,,,,,0.6922,,,,,,,,1.5,images/target_cross.jpg,testwpj2,001,2023-04-09_18h41.19.016,choiceRTT,2021.2.3,MacIntel,60.04202942,,,,,,,,1,1,10,6,1
b,1,2.4398,,,,,,,,0.9398,,,,,,,,1.5,images/target_plus.jpg,testwpj2,001,2023-04-09_18h41.19.016,choiceRTT,2021.2.3,MacIntel,60.04202942,,,,,,,,1,2,11,4,1
v,1,1.8641,,,,,,,,0.7641,,,,,,,,1.1,images/target_square.jpg,testwpj2,001,2023-04-09_18h41.19.016,choiceRTT,2021.2.3,MacIntel,60.04202942,,,,,,,,1,3,12,5,1
b,1,2.3303,,,,,,,,1.0303,,,,,,,,1.3,images/target_plus.jpg,testwpj2,001,2023-04-09_18h41.19.016,choiceRTT,2021.2.3,MacIntel,60.04202942,,,,,,,,1,4,13,1,1
c,1,2.1278,,,,,,,,0.8278,,,,,,,,1.3,images/target_cross.jpg,testwpj2,001,2023-04-09_18h41.19.016,choiceRTT,2021.2.3,MacIntel,60.04202942,,,,,,,,1,5,14,3,1
c,1,1.7715,,,,,,,,0.6715,,,,,,,,1.1,images/target_cross.jpg,testwpj2,001,2023-04-09_18h41.19.016,choiceRTT,2021.2.3,MacIntel,60.04202942,,,,,,,,1,6,15,0,1
b,1,1.8194,,,,,,,,0.7194,,,,,,,,1.1,images/target_plus.jpg,testwpj2,001,2023-04-09_18h41.19.016,choiceRTT,2021.2.3,MacIntel,60.04202942,,,,,,,,1,7,16,7,1
v,1,2.0818,,,,,,,,0.5818,,,,,,,,1.5,images/target_square.jpg,testwpj2,001,2023-04-09_18h41.19.016,choiceRTT,2021.2.3,MacIntel,60.04202942,,,,,,,,1,8,17,2,1
