response.keys,response.corr,mouseResp.x,mouseResp.y,mouseResp.leftButton,mouseResp.midButton,mouseResp.rightButton,mouseResp.clicked_name,practiceTrials.thisRepN,practiceTrials.thisTrialN,practiceTrials.thisN,practiceTrials.thisIndex,practiceTrials.ran,practiceTrials.order,isi,xPos,corrAns,participant,session,date,expName,psychopyVersion,frameRate,mainTrials.thisRepN,mainTrials.thisTrialN,mainTrials.thisN,mainTrials.thisIndex,mainTrials.ran,mainTrials.order
,0,-0.284722222,0.0703125,1,0,0,targImage,1,0,8,4,1,7,1,-0.375,c,testparticipant,001,2020-04-14_10h24.10.354,choiceRTT,3.1.3,60,,,,,,
,0,-0.284722222,0.0703125,1,0,0,targImage,1,0,8,0,1,7,1,-0.375,c,testparticipant,001,2020-04-14_10h24.10.354,choiceRTT,3.1.3,60,,,,,,
,0,-0.170138889,0.055555556,1,0,0,targImage,1,0,8,5,1,7,1,-0.125,v,testparticipant,001,2020-04-14_10h24.10.354,choiceRTT,3.1.3,60,,,,,,
,0,0.368923611,0.019965278,1,0,0,targImage,1,0,8,3,1,7,1,0.375,n,testparticipant,001,2020-04-14_10h24.10.354,choiceRTT,3.1.3,60,,,,,,
,0,0.074652778,0.014756944,1,0,0,targImage,1,0,8,2,1,7,1,0.125,b,testparticipant,001,2020-04-14_10h24.10.354,choiceRTT,3.1.3,60,,,,,,
,0,-0.077256944,-0.000868056,1,0,0,targImage,1,0,8,1,1,7,1,-0.125,v,testparticipant,001,2020-04-14_10h24.10.354,choiceRTT,3.1.3,60,,,,,,
,0,0.450520833,0.021701389,1,0,0,targImage,1,0,8,7,1,7,1,0.375,n,testparticipant,001,2020-04-14_10h24.10.354,choiceRTT,3.1.3,60,,,,,,
,0,0.141493056,-0.006076389,1,0,0,targImage,1,0,8,6,1,7,1,0.125,b,testparticipant,001,2020-04-14_10h24.10.354,choiceRTT,3.1.3,60,,,,,,
,0,0.099826389,-0.018229167,1,0,0,targImage,,,,,,,2.3332,0.125,b,testparticipant,001,2020-04-14_10h24.10.354,choiceRTT,3.1.3,60,1,0,40,26,1,39
,0,-0.134548611,-0.0234375,1,0,0,targImage,,,,,,,2.7776,-0.125,v,testparticipant,001,2020-04-14_10h24.10.354,choiceRTT,3.1.3,60,1,0,40,33,1,39
,0,-0.4140625,-0.032118056,1,0,0,targImage,,,,,,,2.9998,-0.375,c,testparticipant,001,2020-04-14_10h24.10.354,choiceRTT,3.1.3,60,1,0,40,36,1,39
,0,0.327256944,-0.008680556,1,0,0,targImage,,,,,,,2.3332,0.375,n,testparticipant,001,2020-04-14_10h24.10.354,choiceRTT,3.1.3,60,1,0,40,27,1,39
,0,-0.284722222,-0.010416667,1,0,0,targImage,,,,,,,2.7776,-0.375,c,testparticipant,001,2020-04-14_10h24.10.354,choiceRTT,3.1.3,60,1,0,40,32,1,39
,0,0.375868056,0.013020833,1,0,0,targImage,,,,,,,1.6666,0.375,n,testparticipant,001,2020-04-14_10h24.10.354,choiceRTT,3.1.3,60,1,0,40,15,1,39
,0,-0.319444444,-0.037326389,1,0,0,targImage,,,,,,,2.3332,-0.375,c,testparticipant,001,2020-04-14_10h24.10.354,choiceRTT,3.1.3,60,1,0,40,24,1,39
,0,-0.350694444,-0.005208333,1,0,0,targImage,,,,,,,2.5554,-0.375,c,testparticipant,001,2020-04-14_10h24.10.354,choiceRTT,3.1.3,60,1,0,40,28,1,39
,0,0.407986111,-0.019965278,1,0,0,targImage,,,,,,,2.5554,0.375,n,testparticipant,001,2020-04-14_10h24.10.354,choiceRTT,3.1.3,60,1,0,40,31,1,39
,0,0.425347222,0.005208333,1,0,0,targImage,,,,,,,1.4444,0.375,n,testparticipant,001,2020-04-14_10h24.10.354,choiceRTT,3.1.3,60,1,0,40,11,1,39
,0,-0.341145833,-0.012152778,1,0,0,targImage,,,,,,,1.4444,-0.375,c,testparticipant,001,2020-04-14_10h24.10.354,choiceRTT,3.1.3,60,1,0,40,8,1,39
,0,-0.40625,-0.043402778,1,0,0,targImage,,,,,,,1.6666,-0.375,c,testparticipant,001,2020-04-14_10h24.10.354,choiceRTT,3.1.3,60,1,0,40,12,1,39
,0,-0.134548611,-0.019965278,1,0,0,targImage,,,,,,,2.3332,-0.125,v,testparticipant,001,2020-04-14_10h24.10.354,choiceRTT,3.1.3,60,1,0,40,25,1,39
,0,0.063368056,-0.013020833,1,0,0,targImage,,,,,,,1.6666,0.125,b,testparticipant,001,2020-04-14_10h24.10.354,choiceRTT,3.1.3,60,1,0,40,14,1,39
,0,-0.147569444,-0.027777778,1,0,0,targImage,,,,,,,1.4444,-0.125,v,testparticipant,001,2020-04-14_10h24.10.354,choiceRTT,3.1.3,60,1,0,40,9,1,39
,0,-0.173611111,-0.020833333,1,0,0,targImage,,,,,,,1,-0.125,v,testparticipant,001,2020-04-14_10h24.10.354,choiceRTT,3.1.3,60,1,0,40,1,1,39
,0,0.125868056,0.042534722,1,0,0,targImage,,,,,,,1.2222,0.125,b,testparticipant,001,2020-04-14_10h24.10.354,choiceRTT,3.1.3,60,1,0,40,6,1,39
,0,-0.096354167,0.020833333,1,0,0,targImage,,,,,,,1.2222,-0.125,v,testparticipant,001,2020-04-14_10h24.10.354,choiceRTT,3.1.3,60,1,0,40,5,1,39
,0,-0.105902778,0.020833333,1,0,0,targImage,,,,,,,1.8888,-0.125,v,testparticipant,001,2020-04-14_10h24.10.354,choiceRTT,3.1.3,60,1,0,40,17,1,39
,0,-0.105902778,0.020833333,1,0,0,targImage,,,,,,,1.6666,-0.125,v,testparticipant,001,2020-04-14_10h24.10.354,choiceRTT,3.1.3,60,1,0,40,13,1,39
,0,0.365451389,0.038194444,1,0,0,targImage,,,,,,,1.2222,0.375,n,testparticipant,001,2020-04-14_10h24.10.354,choiceRTT,3.1.3,60,1,0,40,7,1,39
,0,0.345486111,0.017361111,1,0,0,targImage,,,,,,,1.8888,0.375,n,testparticipant,001,2020-04-14_10h24.10.354,choiceRTT,3.1.3,60,1,0,40,19,1,39
,0,0.194444444,-0.006944444,1,0,0,targImage,,,,,,,2.9998,0.125,b,testparticipant,001,2020-04-14_10h24.10.354,choiceRTT,3.1.3,60,1,0,40,38,1,39
,0,0.159722222,-0.0234375,1,0,0,targImage,,,,,,,2.111,0.125,b,testparticipant,001,2020-04-14_10h24.10.354,choiceRTT,3.1.3,60,1,0,40,22,1,39
,0,-0.092881944,-0.076388889,1,0,0,targImage,,,,,,,2.111,-0.125,v,testparticipant,001,2020-04-14_10h24.10.354,choiceRTT,3.1.3,60,1,0,40,21,1,39
,0,0.387152778,0.038194444,1,0,0,targImage,,,,,,,2.111,0.375,n,testparticipant,001,2020-04-14_10h24.10.354,choiceRTT,3.1.3,60,1,0,40,23,1,39
,0,0.337673611,-0.0078125,1,0,0,targImage,,,,,,,2.9998,0.375,n,testparticipant,001,2020-04-14_10h24.10.354,choiceRTT,3.1.3,60,1,0,40,39,1,39
,0,-0.298611111,0.006076389,1,0,0,targImage,,,,,,,1.2222,-0.375,c,testparticipant,001,2020-04-14_10h24.10.354,choiceRTT,3.1.3,60,1,0,40,4,1,39
,0,-0.079861111,0.013888889,1,0,0,targImage,,,,,,,2.5554,-0.125,v,testparticipant,001,2020-04-14_10h24.10.354,choiceRTT,3.1.3,60,1,0,40,29,1,39
,0,-0.425347222,-0.015625,1,0,0,targImage,,,,,,,1.8888,-0.375,c,testparticipant,001,2020-04-14_10h24.10.354,choiceRTT,3.1.3,60,1,0,40,16,1,39
,0,0.205729167,0.022569444,1,0,0,targImage,,,,,,,1,0.125,b,testparticipant,001,2020-04-14_10h24.10.354,choiceRTT,3.1.3,60,1,0,40,2,1,39
,0,-0.369791667,0.016493056,1,0,0,targImage,,,,,,,1,-0.375,c,testparticipant,001,2020-04-14_10h24.10.354,choiceRTT,3.1.3,60,1,0,40,0,1,39
,0,0.129340278,0.006944444,1,0,0,targImage,,,,,,,2.7776,0.125,b,testparticipant,001,2020-04-14_10h24.10.354,choiceRTT,3.1.3,60,1,0,40,34,1,39
,0,0.129340278,0.006944444,1,0,0,targImage,,,,,,,1.4444,0.125,b,testparticipant,001,2020-04-14_10h24.10.354,choiceRTT,3.1.3,60,1,0,40,10,1,39
,0,0.339409722,0.003472222,1,0,0,targImage,,,,,,,1,0.375,n,testparticipant,001,2020-04-14_10h24.10.354,choiceRTT,3.1.3,60,1,0,40,3,1,39
,0,0.3125,0,1,0,0,targImage,,,,,,,2.7776,0.375,n,testparticipant,001,2020-04-14_10h24.10.354,choiceRTT,3.1.3,60,1,0,40,35,1,39
,0,-0.361979167,-0.051215278,1,0,0,targImage,,,,,,,2.111,-0.375,c,testparticipant,001,2020-04-14_10h24.10.354,choiceRTT,3.1.3,60,1,0,40,20,1,39
,0,-0.162326389,-0.018229167,1,0,0,targImage,,,,,,,2.9998,-0.125,v,testparticipant,001,2020-04-14_10h24.10.354,choiceRTT,3.1.3,60,1,0,40,37,1,39
,0,0.067708333,-0.015625,1,0,0,targImage,,,,,,,1.8888,0.125,b,testparticipant,001,2020-04-14_10h24.10.354,choiceRTT,3.1.3,60,1,0,40,18,1,39
,0,0.128472222,-0.015625,1,0,0,targImage,,,,,,,2.5554,0.125,b,testparticipant,001,2020-04-14_10h24.10.354,choiceRTT,3.1.3,60,1,0,40,30,1,39
