response.keys,response.corr,mouseResp.x,mouseResp.y,mouseResp.leftButton,mouseResp.midButton,mouseResp.rightButton,mouseResp.clicked_name,practiceTrials.thisRepN,practiceTrials.thisTrialN,practiceTrials.thisN,practiceTrials.thisIndex,practiceTrials.ran,practiceTrials.order,isi,xPos,corrAns,participant,session,date,expName,psychopyVersion,frameRate,mainTrials.thisRepN,mainTrials.thisTrialN,mainTrials.thisN,mainTrials.thisIndex,mainTrials.ran,mainTrials.order
,0,-0.100320171,-0.012273212,1,0,0,targImage,1,0,8,1,1,7,1,-0.125,v,WM,001,2020-04-24_10h49.13.051,choiceRTT,3.1.3,60,,,,,,
,0,-0.104589114,-0.017609392,1,0,0,targImage,1,0,8,5,1,7,1,-0.125,v,WM,001,2020-04-24_10h49.13.051,choiceRTT,3.1.3,60,,,,,,
,0,0.184631804,0.00266809,1,0,0,targImage,1,0,8,2,1,7,1,0.125,b,WM,001,2020-04-24_10h49.13.051,choiceRTT,3.1.3,60,,,,,,
,0,0.359658485,-0.00266809,1,0,0,targImage,1,0,8,7,1,7,1,0.375,n,WM,001,2020-04-24_10h49.13.051,choiceRTT,3.1.3,60,,,,,,
,0,-0.341515475,-0.01547492,1,0,0,targImage,1,0,8,0,1,7,1,-0.375,c,WM,001,2020-04-24_10h49.13.051,choiceRTT,3.1.3,60,,,,,,
,0,-0.334044824,0.001600854,1,0,0,targImage,1,0,8,4,1,7,1,-0.375,c,WM,001,2020-04-24_10h49.13.051,choiceRTT,3.1.3,60,,,,,,
,0,0.385272145,-0.030416222,1,0,0,targImage,1,0,8,3,1,7,1,0.375,n,WM,001,2020-04-24_10h49.13.051,choiceRTT,3.1.3,60,,,,,,
,0,0.173959445,-0.031483458,1,0,0,targImage,1,0,8,6,1,7,1,0.125,b,WM,001,2020-04-24_10h49.13.051,choiceRTT,3.1.3,60,,,,,,
,0,0.110992529,-0.031483458,1,0,0,targImage,,,,,,,1,0.125,b,WM,001,2020-04-24_10h49.13.051,choiceRTT,3.1.3,60,1,0,40,2,1,39
,0,-0.383137673,-0.044290288,1,0,0,targImage,,,,,,,1.2222,-0.375,c,WM,001,2020-04-24_10h49.13.051,choiceRTT,3.1.3,60,1,0,40,4,1,39
,0,0.350053362,0.016542156,1,0,0,targImage,,,,,,,1,0.375,n,WM,001,2020-04-24_10h49.13.051,choiceRTT,3.1.3,60,1,0,40,3,1,39
,0,-0.177161153,0.00266809,1,0,0,targImage,,,,,,,2.5554,-0.125,v,WM,001,2020-04-24_10h49.13.051,choiceRTT,3.1.3,60,1,0,40,29,1,39
,0,-0.177161153,-0.000533618,1,0,0,targImage,,,,,,,1.4444,-0.125,v,WM,001,2020-04-24_10h49.13.051,choiceRTT,3.1.3,60,1,0,40,9,1,39
,0,0.424759872,-0.021878335,1,0,0,targImage,,,,,,,1.4444,0.375,n,WM,001,2020-04-24_10h49.13.051,choiceRTT,3.1.3,60,1,0,40,11,1,39
,0,0.310565635,-0.003735326,1,0,0,targImage,,,,,,,2.111,0.375,n,WM,001,2020-04-24_10h49.13.051,choiceRTT,3.1.3,60,1,0,40,23,1,39
,0,0.125933831,-0.011205977,1,0,0,targImage,,,,,,,2.9998,0.125,b,WM,001,2020-04-24_10h49.13.051,choiceRTT,3.1.3,60,1,0,40,38,1,39
,0,0.127001067,-0.011205977,1,0,0,targImage,,,,,,,1.8888,0.125,b,WM,001,2020-04-24_10h49.13.051,choiceRTT,3.1.3,60,1,0,40,18,1,39
,0,0.127001067,-0.011205977,1,0,0,targImage,,,,,,,2.5554,0.125,b,WM,001,2020-04-24_10h49.13.051,choiceRTT,3.1.3,60,1,0,40,30,1,39
,0,-0.364994664,0.00266809,1,0,0,targImage,,,,,,,2.9998,-0.375,c,WM,001,2020-04-24_10h49.13.051,choiceRTT,3.1.3,60,1,0,40,36,1,39
,0,0.125933831,0.04642476,1,0,0,targImage,,,,,,,2.111,0.125,b,WM,001,2020-04-24_10h49.13.051,choiceRTT,3.1.3,60,1,0,40,22,1,39
,0,-0.298826041,-0.003735326,1,0,0,targImage,,,,,,,2.111,-0.375,c,WM,001,2020-04-24_10h49.13.051,choiceRTT,3.1.3,60,1,0,40,20,1,39
,0,0.104589114,0.009071505,1,0,0,targImage,,,,,,,2.7776,0.125,b,WM,001,2020-04-24_10h49.13.051,choiceRTT,3.1.3,60,1,0,40,34,1,39
,0,-0.077908218,-0.019743863,1,0,0,targImage,,,,,,,2.9998,-0.125,v,WM,001,2020-04-24_10h49.13.051,choiceRTT,3.1.3,60,1,0,40,37,1,39
,0,-0.073639274,-0.004802561,1,0,0,targImage,,,,,,,1.8888,-0.125,v,WM,001,2020-04-24_10h49.13.051,choiceRTT,3.1.3,60,1,0,40,17,1,39
,0,-0.07470651,-0.004802561,1,0,0,targImage,,,,,,,1.6666,-0.125,v,WM,001,2020-04-24_10h49.13.051,choiceRTT,3.1.3,60,1,0,40,13,1,39
,0,-0.346851654,0.018676628,1,0,0,targImage,,,,,,,1.6666,-0.375,c,WM,001,2020-04-24_10h49.13.051,choiceRTT,3.1.3,60,1,0,40,12,1,39
,0,-0.354322305,-0.020811099,1,0,0,targImage,,,,,,,1.4444,-0.375,c,WM,001,2020-04-24_10h49.13.051,choiceRTT,3.1.3,60,1,0,40,8,1,39
,0,0.094983991,-0.009071505,1,0,0,targImage,,,,,,,1.2222,0.125,b,WM,001,2020-04-24_10h49.13.051,choiceRTT,3.1.3,60,1,0,40,6,1,39
,0,0.094983991,-0.009071505,1,0,0,targImage,,,,,,,2.3332,0.125,b,WM,001,2020-04-24_10h49.13.051,choiceRTT,3.1.3,60,1,0,40,26,1,39
,0,-0.080042689,-0.030416222,1,0,0,targImage,,,,,,,2.111,-0.125,v,WM,001,2020-04-24_10h49.13.051,choiceRTT,3.1.3,60,1,0,40,21,1,39
,0,0.33511206,-0.006937033,1,0,0,targImage,,,,,,,1.6666,0.375,n,WM,001,2020-04-24_10h49.13.051,choiceRTT,3.1.3,60,1,0,40,15,1,39
,0,-0.107790822,-0.01547492,1,0,0,targImage,,,,,,,1.2222,-0.125,v,WM,001,2020-04-24_10h49.13.051,choiceRTT,3.1.3,60,1,0,40,5,1,39
,0,0.119530416,-0.000533618,1,0,0,targImage,,,,,,,1.4444,0.125,b,WM,001,2020-04-24_10h49.13.051,choiceRTT,3.1.3,60,1,0,40,10,1,39
,0,-0.07470651,-0.020811099,1,0,0,targImage,,,,,,,1,-0.125,v,WM,001,2020-04-24_10h49.13.051,choiceRTT,3.1.3,60,1,0,40,1,1,39
,0,0.134471718,-0.006937033,1,0,0,targImage,,,,,,,1.6666,0.125,b,WM,001,2020-04-24_10h49.13.051,choiceRTT,3.1.3,60,1,0,40,14,1,39
,0,-0.307363927,-0.034685165,1,0,0,targImage,,,,,,,1,-0.375,c,WM,001,2020-04-24_10h49.13.051,choiceRTT,3.1.3,60,1,0,40,0,1,39
,0,0.413020277,-0.010138741,1,0,0,targImage,,,,,,,1.8888,0.375,n,WM,001,2020-04-24_10h49.13.051,choiceRTT,3.1.3,60,1,0,40,19,1,39
,0,-0.073639274,-0.032550694,1,0,0,targImage,,,,,,,2.7776,-0.125,v,WM,001,2020-04-24_10h49.13.051,choiceRTT,3.1.3,60,1,0,40,33,1,39
,0,-0.356456777,-0.044290288,1,0,0,targImage,,,,,,,2.7776,-0.375,c,WM,001,2020-04-24_10h49.13.051,choiceRTT,3.1.3,60,1,0,40,32,1,39
,0,-0.328708645,-0.018676628,1,0,0,targImage,,,,,,,2.3332,-0.375,c,WM,001,2020-04-24_10h49.13.051,choiceRTT,3.1.3,60,1,0,40,24,1,39
,0,0.431163287,-0.003735326,1,0,0,targImage,,,,,,,2.7776,0.375,n,WM,001,2020-04-24_10h49.13.051,choiceRTT,3.1.3,60,1,0,40,35,1,39
,0,0.353255069,-0.005869797,1,0,0,targImage,,,,,,,1.2222,0.375,n,WM,001,2020-04-24_10h49.13.051,choiceRTT,3.1.3,60,1,0,40,7,1,39
,0,0.367129136,-0.010138741,1,0,0,targImage,,,,,,,2.5554,0.375,n,WM,001,2020-04-24_10h49.13.051,choiceRTT,3.1.3,60,1,0,40,31,1,39
,0,-0.368196371,-0.017609392,1,0,0,targImage,,,,,,,2.5554,-0.375,c,WM,001,2020-04-24_10h49.13.051,choiceRTT,3.1.3,60,1,0,40,28,1,39
,0,-0.07470651,-0.025080043,1,0,0,targImage,,,,,,,2.3332,-0.125,v,WM,001,2020-04-24_10h49.13.051,choiceRTT,3.1.3,60,1,0,40,25,1,39
,0,0.383137673,-0.008004269,1,0,0,targImage,,,,,,,2.3332,0.375,n,WM,001,2020-04-24_10h49.13.051,choiceRTT,3.1.3,60,1,0,40,27,1,39
,0,-0.388473853,-0.012273212,1,0,0,targImage,,,,,,,1.8888,-0.375,c,WM,001,2020-04-24_10h49.13.051,choiceRTT,3.1.3,60,1,0,40,16,1,39
,0,0.423692636,-0.019743863,1,0,0,targImage,,,,,,,2.9998,0.375,n,WM,001,2020-04-24_10h49.13.051,choiceRTT,3.1.3,60,1,0,40,39,1,39
