participant,session,date,expName,psychopyVersion,OS,frameRate,keyResp.keys,keyResp.corr,keyResp.rt,keyResp.duration,mouseResp.x,mouseResp.y,mouseResp.leftButton,mouseResp.midButton,mouseResp.rightButton,mouseResp.time,mouseResp.clicked_name,trialRespTimes,moveOnKeys.keys,moveOnKeys.rt,moveOnKeys.duration,PracticeLoop.thisRepN,PracticeLoop.thisTrialN,PracticeLoop.thisN,PracticeLoop.thisIndex,PracticeLoop.ran,onsetTime,thisImage,key_resp.keys,mouse.x,mouse.y,mouse.leftButton,mouse.midButton,mouse.rightButton,ExptLoop.thisRepN,ExptLoop.thisTrialN,ExptLoop.thisN,ExptLoop.thisIndex,ExptLoop.ran
woojin,001,2024-01-23_02h36.30.493,choiceRTT,2023.1.3,Win32,60.0240096,,,,,,,,,,,,,,,,,,,,,,,,,,,,,,,,,
woojin,001,2024-01-23_02h36.30.493,choiceRTT,2023.1.3,Win32,60.0240096,v,1,4.008,,,,,,,,,2.708,space,1.344,,0,0,0,8,1,1.3,images/target_square.jpg,,,,,,,,,,,
woojin,001,2024-01-23_02h36.30.493,choiceRTT,2023.1.3,Win32,60.0240096,c,1,2.404,,,,,,,,,1.104,space,0.811,,0,1,1,3,1,1.3,images/target_cross.jpg,,,,,,,,,,,
woojin,001,2024-01-23_02h36.30.493,choiceRTT,2023.1.3,Win32,60.0240096,b,1,1.84,,,,,,,,,0.74,space,0.431,,0,2,2,7,1,1.1,images/target_plus.jpg,,,,,,,,,,,
woojin,001,2024-01-23_02h36.30.493,choiceRTT,2023.1.3,Win32,60.0240096,c,1,2.675,,,,,,,,,1.175,space,0.469,,0,3,3,6,1,1.5,images/target_cross.jpg,,,,,,,,,,,
woojin,001,2024-01-23_02h36.30.493,choiceRTT,2023.1.3,Win32,60.0240096,v,1,2.757,,,,,,,,,1.257,space,0.608,,0,4,4,2,1,1.5,images/target_square.jpg,,,,,,,,,,,
woojin,001,2024-01-23_02h36.30.493,choiceRTT,2023.1.3,Win32,60.0240096,c,0,2.471,,,,,,,,,0.971,space,0.478,,0,5,5,4,1,1.5,images/target_plus.jpg,,,,,,,,,,,
woojin,001,2024-01-23_02h36.30.493,choiceRTT,2023.1.3,Win32,60.0240096,c,0,3.004,,,,,,,,,1.704,space,0.728,,0,6,6,1,1,1.3,images/target_plus.jpg,,,,,,,,,,,
woojin,001,2024-01-23_02h36.30.493,choiceRTT,2023.1.3,Win32,60.0240096,c,1,2.926,,,,,,,,,1.826,space,0.862,,0,7,7,0,1,1.1,images/target_cross.jpg,,,,,,,,,,,
woojin,001,2024-01-23_02h36.30.493,choiceRTT,2023.1.3,Win32,60.0240096,v,1,3.068,,,,,,,,,1.968,space,3.285,,0,8,8,5,1,1.1,images/target_square.jpg,,,,,,,,,,,
woojin,001,2024-01-23_02h36.30.493,choiceRTT,2023.1.3,Win32,60.0240096,,,,,,,,,,,,,,,,,,,,,,,,0.005555556,-0.274074074,1,0,0,,,,,
woojin,001,2024-01-23_02h36.30.493,choiceRTT,2023.1.3,Win32,60.0240096,v,1,2.251,,,,,,,,,1.151,,,,,,,,,1.1,images/target_square.jpg,,,,,,,0,0,0,5,1
woojin,001,2024-01-23_02h36.30.493,choiceRTT,2023.1.3,Win32,60.0240096,v,1,2.021,,,,,,,,,0.721,,,,,,,,,1.3,images/target_square.jpg,,,,,,,0,1,1,8,1
woojin,001,2024-01-23_02h36.30.493,choiceRTT,2023.1.3,Win32,60.0240096,c,0,2.144,,,,,,,,,0.844,,,,,,,,,1.3,images/target_plus.jpg,,,,,,,0,2,2,1,1
woojin,001,2024-01-23_02h36.30.493,choiceRTT,2023.1.3,Win32,60.0240096,c,1,3.18,,,,,,,,,2.08,,,,,,,,,1.1,images/target_cross.jpg,,,,,,,0,3,3,0,1
woojin,001,2024-01-23_02h36.30.493,choiceRTT,2023.1.3,Win32,60.0240096,b,1,2.194,,,,,,,,,1.094,,,,,,,,,1.1,images/target_plus.jpg,,,,,,,0,4,4,7,1
woojin,001,2024-01-23_02h36.30.493,choiceRTT,2023.1.3,Win32,60.0240096,c,1,2.028,,,,,,,,,0.728,,,,,,,,,1.3,images/target_cross.jpg,,,,,,,0,5,5,3,1
woojin,001,2024-01-23_02h36.30.493,choiceRTT,2023.1.3,Win32,60.0240096,v,1,2.021,,,,,,,,,0.521,,,,,,,,,1.5,images/target_square.jpg,,,,,,,0,6,6,2,1
woojin,001,2024-01-23_02h36.30.493,choiceRTT,2023.1.3,Win32,60.0240096,c,1,2.221,,,,,,,,,0.721,,,,,,,,,1.5,images/target_cross.jpg,,,,,,,0,7,7,6,1
woojin,001,2024-01-23_02h36.30.493,choiceRTT,2023.1.3,Win32,60.0240096,b,1,2.787,,,,,,,,,1.287,,,,,,,,,1.5,images/target_plus.jpg,,,,,,,0,8,8,4,1
woojin,001,2024-01-23_02h36.30.493,choiceRTT,2023.1.3,Win32,60.0240096,c,1,2.385,,,,,,,,,1.085,,,,,,,,,1.3,images/target_cross.jpg,,,,,,,1,0,9,3,1
woojin,001,2024-01-23_02h36.30.493,choiceRTT,2023.1.3,Win32,60.0240096,b,1,2.66,,,,,,,,,1.36,,,,,,,,,1.3,images/target_plus.jpg,,,,,,,1,1,10,1,1
woojin,001,2024-01-23_02h36.30.493,choiceRTT,2023.1.3,Win32,60.0240096,v,1,2.158,,,,,,,,,1.058,,,,,,,,,1.1,images/target_square.jpg,,,,,,,1,2,11,5,1
woojin,001,2024-01-23_02h36.30.493,choiceRTT,2023.1.3,Win32,60.0240096,b,1,2.231,,,,,,,,,0.731,,,,,,,,,1.5,images/target_plus.jpg,,,,,,,1,3,12,4,1
woojin,001,2024-01-23_02h36.30.493,choiceRTT,2023.1.3,Win32,60.0240096,c,1,2.324,,,,,,,,,0.824,,,,,,,,,1.5,images/target_cross.jpg,,,,,,,1,4,13,6,1
woojin,001,2024-01-23_02h36.30.493,choiceRTT,2023.1.3,Win32,60.0240096,c,1,2.553,,,,,,,,,1.453,,,,,,,,,1.1,images/target_cross.jpg,,,,,,,1,5,14,0,1
woojin,001,2024-01-23_02h36.30.493,choiceRTT,2023.1.3,Win32,60.0240096,v,1,2.078,,,,,,,,,0.778,,,,,,,,,1.3,images/target_square.jpg,,,,,,,1,6,15,8,1
woojin,001,2024-01-23_02h36.30.493,choiceRTT,2023.1.3,Win32,60.0240096,v,1,2.206,,,,,,,,,0.706,,,,,,,,,1.5,images/target_square.jpg,,,,,,,1,7,16,2,1
woojin,001,2024-01-23_02h36.30.493,choiceRTT,2023.1.3,Win32,60.0240096,b,1,2.188,,,,,,,,,1.088,,,,,,,,,1.1,images/target_plus.jpg,,,,,,,1,8,17,7,1
woojin,001,2024-01-23_02h36.30.493,choiceRTT,2023.1.3,Win32,60.0240096,,,,,,,,,,,,,,,,,,,,,,,,,,,,,,,,,
