response.keys,response.corr,mouseResp.x,mouseResp.y,mouseResp.leftButton,mouseResp.midButton,mouseResp.rightButton,mouseResp.clicked_name,practiceTrials.thisRepN,practiceTrials.thisTrialN,practiceTrials.thisN,practiceTrials.thisIndex,practiceTrials.ran,practiceTrials.order,isi,xPos,corrAns,participant,session,date,expName,psychopyVersion,frameRate,mainTrials.thisRepN,mainTrials.thisTrialN,mainTrials.thisN,mainTrials.thisIndex,mainTrials.ran,mainTrials.order
,0,-0.090497504,-0.018706597,1,0,0,targImage,1,0,8,5,1,7,1,-0.125,v,xx,001,2019-04-10_21h08.38.338,choiceRTT,3.0.3,60,,,,,,
,0,0.310961914,-0.013764106,1,0,0,targImage,1,0,8,7,1,7,1,0.375,n,xx,001,2019-04-10_21h08.38.338,choiceRTT,3.0.3,60,,,,,,
,0,0.147241211,-0.045757378,1,0,0,targImage,1,0,8,2,1,7,1,0.125,b,xx,001,2019-04-10_21h08.38.338,choiceRTT,3.0.3,60,,,,,,
,0,0.187299262,-0.030612522,1,0,0,targImage,1,0,8,6,1,7,1,0.125,b,xx,001,2019-04-10_21h08.38.338,choiceRTT,3.0.3,60,,,,,,
,0,-0.341756185,-0.011287435,1,0,0,targImage,1,0,8,4,1,7,1,-0.375,c,xx,001,2019-04-10_21h08.38.338,choiceRTT,3.0.3,60,,,,,,
,0,-0.33836263,0.024313694,1,0,0,targImage,1,0,8,0,1,7,1,-0.375,c,xx,001,2019-04-10_21h08.38.338,choiceRTT,3.0.3,60,,,,,,
,0,0.369615343,-0.009925673,1,0,0,targImage,1,0,8,3,1,7,1,0.375,n,xx,001,2019-04-10_21h08.38.338,choiceRTT,3.0.3,60,,,,,,
,0,-0.123410373,-0.009670681,1,0,0,targImage,1,0,8,1,1,7,1,-0.125,v,xx,001,2019-04-10_21h08.38.338,choiceRTT,3.0.3,60,,,,,,
,0,-0.286477322,-0.075043403,1,0,0,targImage,,,,,,,2.3332,-0.375,c,xx,001,2019-04-10_21h08.38.338,choiceRTT,3.0.3,60,1,0,40,24,1,39
,0,-0.107158746,0.013937717,1,0,0,targImage,,,,,,,2.3332,-0.125,v,xx,001,2019-04-10_21h08.38.338,choiceRTT,3.0.3,60,1,0,40,25,1,39
,0,0.310747613,-0.00696072,1,0,0,targImage,,,,,,,2.5554,0.375,n,xx,001,2019-04-10_21h08.38.338,choiceRTT,3.0.3,60,1,0,40,31,1,39
,0,0.36191135,-0.009865994,1,0,0,targImage,,,,,,,2.9998,0.375,n,xx,001,2019-04-10_21h08.38.338,choiceRTT,3.0.3,60,1,0,40,39,1,39
,0,0.305189345,0.003662109,1,0,0,targImage,,,,,,,1.2222,0.375,n,xx,001,2019-04-10_21h08.38.338,choiceRTT,3.0.3,60,1,0,40,7,1,39
,0,0.421085612,0.03468967,1,0,0,targImage,,,,,,,2.3332,0.375,n,xx,001,2019-04-10_21h08.38.338,choiceRTT,3.0.3,60,1,0,40,27,1,39
,0,0.313083225,-0.021842448,1,0,0,targImage,,,,,,,2.111,0.375,n,xx,001,2019-04-10_21h08.38.338,choiceRTT,3.0.3,60,1,0,40,23,1,39
,0,0.110625543,-0.05816786,1,0,0,targImage,,,,,,,1.6666,0.125,b,xx,001,2019-04-10_21h08.38.338,choiceRTT,3.0.3,60,1,0,40,14,1,39
,0,-0.159667969,-0.020581055,1,0,0,targImage,,,,,,,1.8888,-0.125,v,xx,001,2019-04-10_21h08.38.338,choiceRTT,3.0.3,60,1,0,40,17,1,39
,0,0.139933268,0.003192817,1,0,0,targImage,,,,,,,1,0.125,b,xx,001,2019-04-10_21h08.38.338,choiceRTT,3.0.3,60,1,0,40,2,1,39
,0,-0.10804579,-0.044835069,1,0,0,targImage,,,,,,,2.7776,-0.125,v,xx,001,2019-04-10_21h08.38.338,choiceRTT,3.0.3,60,1,0,40,33,1,39
,0,0.135248481,-0.042862956,1,0,0,targImage,,,,,,,1.8888,0.125,b,xx,001,2019-04-10_21h08.38.338,choiceRTT,3.0.3,60,1,0,40,18,1,39
,0,-0.400922309,0.001611328,1,0,0,targImage,,,,,,,1.8888,-0.375,c,xx,001,2019-04-10_21h08.38.338,choiceRTT,3.0.3,60,1,0,40,16,1,39
,0,-0.115424262,-0.064048937,1,0,0,targImage,,,,,,,1,-0.125,v,xx,001,2019-04-10_21h08.38.338,choiceRTT,3.0.3,60,1,0,40,1,1,39
,0,0.089252387,-0.016449653,1,0,0,targImage,,,,,,,2.3332,0.125,b,xx,001,2019-04-10_21h08.38.338,choiceRTT,3.0.3,60,1,0,40,26,1,39
,0,0.36340332,-0.039206272,1,0,0,targImage,,,,,,,1.8888,0.375,n,xx,001,2019-04-10_21h08.38.338,choiceRTT,3.0.3,60,1,0,40,19,1,39
,0,0.180769857,-0.000976563,1,0,0,targImage,,,,,,,2.5554,0.125,b,xx,001,2019-04-10_21h08.38.338,choiceRTT,3.0.3,60,1,0,40,30,1,39
,0,-0.325423177,-0.04366862,1,0,0,targImage,,,,,,,1.6666,-0.375,c,xx,001,2019-04-10_21h08.38.338,choiceRTT,3.0.3,60,1,0,40,12,1,39
,0,-0.143777127,-0.077704536,1,0,0,targImage,,,,,,,2.5554,-0.125,v,xx,001,2019-04-10_21h08.38.338,choiceRTT,3.0.3,60,1,0,40,29,1,39
,0,0.296042209,0.001437717,1,0,0,targImage,,,,,,,2.7776,0.375,n,xx,001,2019-04-10_21h08.38.338,choiceRTT,3.0.3,60,1,0,40,35,1,39
,0,0.319715712,0.031453451,1,0,0,targImage,,,,,,,1.6666,0.375,n,xx,001,2019-04-10_21h08.38.338,choiceRTT,3.0.3,60,1,0,40,15,1,39
,0,-0.423771159,0.02542589,1,0,0,targImage,,,,,,,2.9998,-0.375,c,xx,001,2019-04-10_21h08.38.338,choiceRTT,3.0.3,60,1,0,40,36,1,39
,0,0.19781901,-0.001630317,1,0,0,targImage,,,,,,,2.7776,0.125,b,xx,001,2019-04-10_21h08.38.338,choiceRTT,3.0.3,60,1,0,40,34,1,39
,0,-0.396663411,0.096950955,1,0,0,targImage,,,,,,,1.4444,-0.375,c,xx,001,2019-04-10_21h08.38.338,choiceRTT,3.0.3,60,1,0,40,8,1,39
,0,-0.320076497,-0.004928928,1,0,0,targImage,,,,,,,2.111,-0.375,c,xx,001,2019-04-10_21h08.38.338,choiceRTT,3.0.3,60,1,0,40,20,1,39
,0,-0.404421658,0.028938802,1,0,0,targImage,,,,,,,1,-0.375,c,xx,001,2019-04-10_21h08.38.338,choiceRTT,3.0.3,60,1,0,40,0,1,39
,0,-0.397222222,0.039165582,1,0,0,targImage,,,,,,,2.5554,-0.375,c,xx,001,2019-04-10_21h08.38.338,choiceRTT,3.0.3,60,1,0,40,28,1,39
,0,0.405107964,0.026456706,1,0,0,targImage,,,,,,,1,0.375,n,xx,001,2019-04-10_21h08.38.338,choiceRTT,3.0.3,60,1,0,40,3,1,39
,0,0.35149197,0.001627604,1,0,0,targImage,,,,,,,1.4444,0.375,n,xx,001,2019-04-10_21h08.38.338,choiceRTT,3.0.3,60,1,0,40,11,1,39
,0,0.184065755,-0.03117947,1,0,0,targImage,,,,,,,1.4444,0.125,b,xx,001,2019-04-10_21h08.38.338,choiceRTT,3.0.3,60,1,0,40,10,1,39
,0,0.139130317,-0.011290148,1,0,0,targImage,,,,,,,1.2222,0.125,b,xx,001,2019-04-10_21h08.38.338,choiceRTT,3.0.3,60,1,0,40,6,1,39
,0,0.120597331,-0.038164605,1,0,0,targImage,,,,,,,2.111,0.125,b,xx,001,2019-04-10_21h08.38.338,choiceRTT,3.0.3,60,1,0,40,22,1,39
,0,-0.320027669,0.002558051,1,0,0,targImage,,,,,,,2.7776,-0.375,c,xx,001,2019-04-10_21h08.38.338,choiceRTT,3.0.3,60,1,0,40,32,1,39
,0,-0.052598741,-0.054071723,1,0,0,targImage,,,,,,,2.111,-0.125,v,xx,001,2019-04-10_21h08.38.338,choiceRTT,3.0.3,60,1,0,40,21,1,39
,0,-0.100263129,-0.068356662,1,0,0,targImage,,,,,,,1.4444,-0.125,v,xx,001,2019-04-10_21h08.38.338,choiceRTT,3.0.3,60,1,0,40,9,1,39
,0,0.188004557,-0.075024414,1,0,0,targImage,,,,,,,2.9998,0.125,b,xx,001,2019-04-10_21h08.38.338,choiceRTT,3.0.3,60,1,0,40,38,1,39
,0,-0.375732422,-0.023312717,1,0,0,targImage,,,,,,,1.2222,-0.375,c,xx,001,2019-04-10_21h08.38.338,choiceRTT,3.0.3,60,1,0,40,4,1,39
,0,-0.101969401,0.012141927,1,0,0,targImage,,,,,,,1.2222,-0.125,v,xx,001,2019-04-10_21h08.38.338,choiceRTT,3.0.3,60,1,0,40,5,1,39
,0,-0.091734484,-0.061797418,1,0,0,targImage,,,,,,,1.6666,-0.125,v,xx,001,2019-04-10_21h08.38.338,choiceRTT,3.0.3,60,1,0,40,13,1,39
,0,-0.138652886,-0.026364475,1,0,0,targImage,,,,,,,2.9998,-0.125,v,xx,001,2019-04-10_21h08.38.338,choiceRTT,3.0.3,60,1,0,40,37,1,39
